"Time (s)","Linear Acceleration x (m/s^2)","Linear Acceleration y (m/s^2)","Linear Acceleration z (m/s^2)","Absolute acceleration (m/s^2)"
3.275333322E-3,-3.200765848E-3,1.053927877E0,-2.274295578E0,2.506630126E0
1.321133334E-2,1.985647193E-1,9.867392761E-1,-2.551361799E0,2.742722985E0
2.314733333E-2,5.336876518E-1,7.833807170E-1,-2.450221925E0,2.627183918E0
3.308333334E-2,8.162254044E-1,4.979249114E-1,-1.839126493E0,2.072809539E0
4.301933333E-2,8.796735415E-1,3.937263590E-1,-9.767323512E-1,1.372170569E0
5.295533335E-2,7.538145635E-1,5.257114649E-1,-2.709734219E-1,9.581417097E-1
6.289133333E-2,5.599834576E-1,7.736047572E-1,1.892082971E-1,9.735736094E-1
7.282733332E-2,3.814507145E-1,1.039667103E0,3.804590267E-1,1.170966013E0
8.276333334E-2,4.528402475E-1,1.357577294E0,-3.242222607E-2,1.431478816E0
9.269933333E-2,4.968788445E-1,1.585532750E0,-9.882016647E-1,1.933221461E0
1.026353333E-1,8.203938845E-1,1.532602877E0,-1.956659036E0,2.617333049E0
1.125703333E-1,1.179156817E0,1.056828973E0,-2.609819337E0,3.052614494E0
1.225063333E-1,1.531467640E0,6.320077059E-1,-2.668014336E0,3.140561633E0
1.324423333E-1,1.815737046E0,2.519144225E-1,-2.457367222E0,3.065781395E0
1.423783333E-1,1.900371838E0,-2.301893851E-1,-1.801292669E0,2.628508238E0
1.523143333E-1,1.815861299E0,-5.901360869E-1,-9.599771547E-1,2.137093586E0
1.622503333E-1,1.355847542E0,-8.701308855E-1,-3.736522830E-1,1.653803599E0
1.721863333E-1,6.184674548E-1,-8.978994589E-1,1.354764783E-1,1.098671610E0
1.821223333E-1,-2.207418926E-1,-7.939592072E-1,8.811140031E-1,1.206424508E0
1.920583333E-1,-8.164318112E-1,-8.457972591E-1,1.473809416E0,1.885218317E0
2.019943333E-1,-8.726042578E-1,-7.027597462E-1,1.468891323E0,1.847417433E0
2.119303333E-1,-7.058247104E-1,-3.244361226E-1,9.248845053E-1,1.207832218E0
2.218653333E-1,-7.333789833E-1,-5.043369681E-2,5.020711720E-1,8.902043320E-1
2.318013333E-1,-9.309330113E-1,9.669631887E-2,4.686087263E-1,1.046699856E0
2.417373333E-1,-9.377125655E-1,5.908784641E-1,4.965052074E-1,1.214479162E0
2.516733333E-1,-7.761556050E-1,9.901405283E-1,6.992936629E-1,1.439377440E0
2.616093333E-1,-5.122046891E-1,1.066169169E0,1.163073758E0,1.658858315E0
2.715453333E-1,-3.775474057E-1,9.792296970E-1,1.369631329E0,1.725492052E0
2.814813333E-1,-4.345251600E-1,1.175317682E0,1.635168595E0,2.060087401E0
2.914173333E-1,-1.534762108E0,2.283275147E0,2.004260634E0,3.403806812E0
3.013533333E-1,-1.901844021E0,2.196003845E0,2.267595254E0,3.685299418E0
3.112893333E-1,-9.711423399E-1,1.660110478E0,2.621816069E0,3.251615559E0
3.212253333E-1,8.763387282E-1,1.194794903E0,3.203982986E0,3.530015780E0
3.311603333E-1,3.260799504E0,6.697674166E-1,3.451161164E0,4.794988548E0
3.410963333E-1,3.554555724E0,1.511236274E-1,2.813690697E0,4.535918880E0
3.510323333E-1,2.246400851E0,1.014218558E-1,1.590689410E0,2.754432060E0
3.609683333E-1,2.174817775E0,-2.921110334E-1,1.331848961E0,2.566901413E0
3.709043333E-1,2.766011623E0,-6.965043218E-1,1.458469246E0,3.203602833E0
3.808403333E-1,2.621071427E0,-5.678145605E-1,1.346117921E0,3.000743617E0
3.907763333E-1,2.636256353E0,-5.133489892E-3,6.516154665E-1,2.715598761E0
4.007123333E-1,3.025263717E0,4.790390626E-1,-3.211635822E-1,3.079747559E0
4.106483333E-1,3.449885009E0,4.119470870E-1,-1.277389163E0,3.701773906E0
4.205843333E-1,3.150027511E0,3.119648887E-1,-1.758458891E0,3.621073471E0
4.305193333E-1,2.630754708E0,2.682211375E-1,-1.319725344E0,2.955416704E0
4.404553333E-1,2.087751419E0,3.820389444E-1,-1.105770460E0,2.393196200E0
4.503913333E-1,1.534687702E0,2.261461817E-1,-9.155242825E-1,1.801275423E0
4.603273333E-1,1.130402587E0,-3.655046265E-1,-9.023738945E-1,1.491872074E0
4.702633333E-1,7.205796475E-1,-9.775383168E-1,-6.306958830E-1,1.368427377E0
4.801993333E-1,-6.984982954E-1,-2.257601193E0,2.137619836E0,3.186546967E0
4.901353333E-1,5.103413276E-1,-2.159905621E0,1.134517711E-1,2.222276281E0
5.000713333E-1,6.913447387E-1,-4.712824753E-1,1.406934811E0,1.636927085E0
5.100073333E-1,7.603032187E-2,-3.351239192E-1,1.020937886E0,1.077219949E0
5.199433333E-1,-7.520696081E-2,-1.292391365E0,-2.534025389E-1,1.319145319E0
5.298793333E-1,-1.926366659E-1,-1.863875126E0,-8.256262654E-1,2.047632316E0
5.398153333E-1,-3.818383118E-1,-1.894299505E0,-1.077247742E0,2.212381931E0
5.497503333E-1,-1.220301920E0,-1.816158046E0,-2.060013835E0,3.005199465E0
5.596863333E-1,-2.501496159E0,-1.611477139E0,-3.349380435E0,4.480255674E0
5.696223333E-1,-3.094045099E0,-6.924541748E-1,-3.412171930E0,4.657845547E0
5.795583333E-1,-2.766516531E0,4.269614942E-1,-2.135331236E0,3.520731361E0
5.894943333E-1,-1.122591730E0,1.022070346E0,-1.421448185E0,2.079748765E0
5.994303333E-1,2.564986030E-1,1.342654030E0,-7.488517392E-1,1.558618076E0
6.093663333E-1,9.135050196E-1,1.767072717E0,-1.490747631E-2,1.989286214E0
6.193023333E-1,1.653343349E0,2.155192619E0,9.485955495E-1,2.877191855E0
6.292383333E-1,2.126312198E0,2.305949188E0,1.557866650E0,3.502221255E0
6.391743333E-1,2.507182868E0,2.596169889E0,2.148861693E0,4.200436954E0
6.491093333E-1,2.634387583E0,2.718411195E0,2.613172715E0,4.599829236E0
6.590453333E-1,2.520316007E0,2.592002286E0,3.329720342E0,4.915028605E0
6.689813333E-1,2.312269443E0,2.402267009E0,4.135197687E0,5.311999310E0
6.789173333E-1,1.729500994E0,2.099249530E0,5.171431305E0,5.843091991E0
6.888533333E-1,9.450660239E-1,1.446021693E0,6.213092893E0,6.448771342E0
6.987893333E-1,-9.284832107E-2,6.353332367E-1,6.857385306E0,6.887379935E0
7.087253333E-1,-1.171724641E0,2.265221759E-1,7.298962355E0,7.395884152E0
7.186613333E-1,-1.693501880E0,-3.563431725E-1,7.104421397E0,7.312163323E0
7.285973333E-1,-1.812530579E0,-9.056385411E-1,6.557345375E0,6.863251900E0
7.385333333E-1,-1.726012691E0,-1.011828509E0,6.001597933E0,6.326301802E0
7.484693333E-1,-1.585874082E0,-1.172561012E0,5.777046726E0,6.104438123E0
7.584053333E-1,-1.299904306E0,-1.689467009E0,6.141346972E0,6.500783999E0
7.683403333E-1,-1.080074725E0,-2.147923799E0,6.687545911E0,7.106575010E0
7.782763333E-1,-1.152302310E0,-2.519511723E0,7.253635324E0,7.764725709E0
7.882123333E-1,-1.466977383E0,-3.086456875E0,7.854328558E0,8.565554027E0
7.981483333E-1,-1.970192855E0,-3.859002409E0,8.146099357E0,9.226727167E0
8.080843333E-1,-2.592447552E0,-4.440672020E0,8.202198129E0,9.680723446E0
8.180203333E-1,-3.167678794E0,-4.925521973E0,8.190972644E0,1.006911061E1
8.279563333E-1,-3.724994167E0,-5.689189972E0,6.953812324E0,9.726148771E0
8.378923333E-1,-3.990178553E0,-6.179983034E0,5.500269358E0,9.185133542E0
8.478283333E-1,-3.879008365E0,-6.266743435E0,4.267917788E0,8.516683711E0
8.577643333E-1,-3.349625434E0,-6.178553390E0,3.384027527E0,7.800394531E0
8.677003333E-1,-2.515524799E0,-6.079888642E0,2.979414237E0,7.222867859E0
8.776353333E-1,-1.838300136E0,-6.153442522E0,3.113420725E0,7.137057578E0
8.875713333E-1,-1.642962056E0,-6.631596243E0,3.460523141E0,7.658499426E0
8.975073333E-1,-1.880212539E0,-7.126778226E0,3.785835323E0,8.286055525E0
9.074433333E-1,-2.083023506E0,-7.424328997E0,3.758774993E0,8.578347011E0
9.173793333E-1,-2.045378108E0,-7.607096002E0,3.513229943E0,8.625211059E0
9.273153333E-1,-1.836943582E0,-7.838427640E0,3.001979812E0,8.592275158E0
9.372503333E-1,-1.783051988E0,-7.979703387E0,2.110908585E0,8.444576697E0
9.471863333E-1,-1.835777208E0,-7.920837128E0,1.229806277E0,8.223269559E0
9.571223333E-1,-1.818759033E0,-7.913643883E0,3.114706528E-1,8.125925049E0
9.670583333E-1,-1.892273591E0,-8.130765034E0,-6.112556452E-1,8.370404581E0
9.769943333E-1,-2.091542315E0,-8.464128247E0,-1.401932518E0,8.830709542E0
9.869293333E-1,-2.227108109E0,-8.878903413E0,-2.094583744E0,9.390538717E0
9.968653333E-1,-2.410124790E0,-9.248819325E0,-2.661005863E0,9.921205199E0
1.006801333E0,-2.679338053E0,-9.543560509E0,-3.107147833E0,1.038810701E1
1.016737333E0,-2.751705533E0,-9.829917955E0,-3.621563061E0,1.083119981E1
1.026673333E0,-2.736966457E0,-9.930436270E0,-3.756185846E0,1.096419090E1
1.036609333E0,-2.694741374E0,-1.015177443E1,-3.544406712E0,1.108525932E1
1.046545333E0,-2.974447320E0,-1.039978408E1,-3.565594683E0,1.138930688E1
1.056481333E0,-3.233370215E0,-1.072215863E1,-4.295908409E0,1.199475709E1
1.066417333E0,-3.170082584E0,-1.097454082E1,-5.312745643E0,1.259822353E1
1.076353333E0,-3.101395634E0,-1.113594503E1,-6.068861378E0,1.305599498E1
1.086289333E0,-2.723118496E0,-1.134793466E1,-6.565515690E0,1.339018266E1
1.096224333E0,-2.079062310E0,-1.147920231E1,-6.746880532E0,1.347646032E1
1.106160333E0,-9.924488629E-1,-1.145489076E1,-7.147073911E0,1.353809967E1
1.116096333E0,2.509732401E-1,-1.117825080E1,-7.152950363E0,1.327331825E1
1.126032333E0,1.124943334E0,-1.065160144E1,-6.897291384E0,1.273949525E1
1.135968333E0,1.905711662E0,-1.005700744E1,-7.371597052E0,1.261410237E1
1.145904333E0,2.484171736E0,-9.659033078E0,-8.165027379E0,1.288936388E1
1.155840333E0,2.599031517E0,-9.196529430E0,-8.815216125E0,1.300150582E1
1.165776333E0,2.643631446E0,-8.737686723E0,-9.233011962E0,1.298400810E1
1.175712333E0,2.708782877E0,-8.520971954E0,-9.436374614E0,1.299960129E1
1.185648333E0,2.433019124E0,-8.342829512E0,-9.421895154E0,1.281774140E1
1.195584333E0,2.190728049E0,-8.459351656E0,-9.464665198E0,1.288176258E1
1.205519333E0,2.252140770E0,-8.789148068E0,-9.549294289E0,1.317233021E1
1.215455333E0,2.322722510E0,-8.638459473E0,-9.498239325E0,1.304739714E1
1.225391333E0,3.107305415E0,-8.203564623E0,-9.583978218E0,1.299255394E1
1.235327333E0,4.709745974E0,-7.700734482E0,-9.531662010E0,1.312766542E1
1.245263333E0,6.513257369E0,-7.068507214E0,-9.081390737E0,1.322338737E1
1.255199333E0,8.332255408E0,-6.456962131E0,-8.463307883E0,1.351837344E1
1.265135333E0,1.003862028E1,-5.588333688E0,-7.593034617E0,1.377162101E1
1.275071333E0,1.120942114E1,-4.495303726E0,-6.247652276E0,1.359750112E1
1.285007333E0,1.247548483E1,-3.859214663E0,-4.862038168E0,1.393451380E1
1.294943333E0,1.394816690E1,-3.688673894E0,-3.425360910E0,1.482871446E1
1.304878333E0,1.498097581E1,-3.797197632E0,-1.890345179E0,1.556989887E1
1.314814333E0,1.520318053E1,-3.939750119E0,-3.138288349E-1,1.570849508E1
1.324750333E0,1.494145682E1,-4.018189055E0,1.030348980E0,1.550659840E1
1.334686333E0,1.453498762E1,-4.239531310E0,1.939031435E0,1.526431570E1
1.344622333E0,1.372941906E1,-4.239612002E0,3.271069261E0,1.473672798E1
1.354558333E0,1.320649204E1,-4.319027715E0,4.984400511E0,1.476176415E1
1.364494333E0,1.241433114E1,-4.589412323E0,6.064038595E0,1.455853314E1
1.374430333E0,1.197102332E1,-4.638182194E0,7.086382737E0,1.466407016E1
1.384366333E0,1.188600948E1,-4.931277387E0,8.287665126E0,1.530621152E1
1.394302333E0,1.146152852E1,-5.395993037E0,9.289712412E0,1.570930086E1
1.404238333E0,1.092663108E1,-5.787316775E0,1.042206315E1,1.617107611E1
1.414173333E0,1.019804696E1,-5.682145831E0,1.188060431E1,1.665640123E1
1.424109333E0,9.395884985E0,-5.091375321E0,1.328524585E1,1.705000042E1
1.434045333E0,8.382449661E0,-4.403164471E0,1.394904516E1,1.685909785E1
1.443981333E0,7.422201195E0,-4.073035938E0,1.379577326E1,1.618647745E1
1.453917333E0,6.857795196E0,-4.103072500E0,1.285713143E1,1.513837466E1
1.463853333E0,6.302153589E0,-4.238646626E0,1.115289961E1,1.349334780E1
1.473789333E0,5.741867537E0,-4.809082859E0,8.865636081E0,1.160585300E1
1.483725333E0,4.829534081E0,-5.323968204E0,7.090206231E0,1.009653709E1
1.493661333E0,3.900269718E0,-5.610454289E0,6.246225556E0,9.257679780E0
1.503597333E0,3.381013287E0,-5.992281564E0,6.207649135E0,9.266800795E0
1.513533333E0,2.613427654E0,-6.472547300E0,6.804389652E0,9.748004472E0
1.523468333E0,1.559742144E0,-7.180615295E0,7.556121145E0,1.053987658E1
1.533404333E0,3.995110095E-1,-8.241035920E0,7.889245791E0,1.141553684E1
1.543340333E0,-7.348128667E-1,-9.882786140E0,7.583605982E0,1.247880169E1
1.553276333E0,-1.993018193E0,-1.169910557E1,6.839383484E0,1.369738512E1
1.563212333E0,-3.046312231E0,-1.290776364E1,6.073539736E0,1.458692103E1
1.573148333E0,-3.726109816E0,-1.349176482E1,5.732726001E0,1.512533503E1
1.583084333E0,-4.161201425E0,-1.361985627E1,6.000483454E0,1.545386307E1
1.593020333E0,-4.376397964E0,-1.355956329E1,6.500951319E0,1.566132127E1
1.602956333E0,-4.549255107E0,-1.342209876E1,6.940322798E0,1.578025784E1
1.612892333E0,-4.534085968E0,-1.350180800E1,7.028637974E0,1.588264797E1
1.622828333E0,-4.341298883E0,-1.362452819E1,7.090172317E0,1.596073896E1
1.632763333E0,-4.334617269E0,-1.351983029E1,7.236049238E0,1.593534206E1
1.642699333E0,-4.419401604E0,-1.360549083E1,7.172685885E0,1.600274708E1
1.652635333E0,-4.832632228E0,-1.387612687E1,6.922907451E0,1.624277928E1
1.662571333E0,-5.514478092E0,-1.397385021E1,6.058421175E0,1.619822291E1
1.672507333E0,-6.011856288E0,-1.361855702E1,4.517472274E0,1.555683345E1
1.682443333E0,-5.854141095E0,-1.292048250E1,2.878870195E0,1.447403640E1
1.692379333E0,-5.257392976E0,-1.223526250E1,1.662387384E0,1.342033387E1
1.702315333E0,-4.801194673E0,-1.165288918E1,8.850035709E-1,1.263426008E1
1.712251333E0,-4.141053966E0,-1.126687354E1,4.225467002E-1,1.201121614E1
1.722187333E0,-3.432583975E0,-1.104646626E1,1.926604933E-1,1.156910401E1
1.732123333E0,-3.052677510E0,-1.090607812E1,2.336605847E-1,1.132766424E1
1.742058333E0,-2.881213466E0,-1.086607497E1,1.426264536E-1,1.124247832E1
1.751994333E0,-2.593436901E0,-1.077448302E1,-2.105243218E-1,1.108421038E1
1.761930333E0,-2.318911295E0,-1.063877616E1,-5.716121078E-1,1.090356126E1
1.771866333E0,-2.185401089E0,-1.054908338E1,-1.191038652E0,1.083871354E1
1.781802333E0,-1.988606615E0,-1.047001733E1,-2.287023797E0,1.089983014E1
1.791738333E0,-1.763423031E0,-1.064397667E1,-3.296468396E0,1.128142740E1
1.801674333E0,-1.503065229E0,-1.099170591E1,-4.085486414E0,1.182235185E1
1.811610333E0,-1.082451911E0,-1.132119184E1,-4.867188395E0,1.237055413E1
1.821546333E0,-3.118737452E-1,-1.141899003E1,-5.957227507E0,1.288328987E1
1.831482333E0,4.859247438E-1,-1.129059336E1,-6.992641929E0,1.328949443E1
1.841418333E0,8.463799341E-1,-1.117033133E1,-7.817845441E0,1.366057716E1
1.851353333E0,3.897650897E-1,-1.110436422E1,-8.471841894E0,1.397250609E1
1.861289333E0,-4.704720146E-1,-1.118121768E1,-8.744280628E0,1.420223280E1
1.871225333E0,-1.164543675E0,-1.116437302E1,-8.931742947E0,1.434487431E1
1.881161333E0,-1.447806117E0,-1.106446632E1,-9.567197294E0,1.469863333E1
1.891097333E0,-1.202186661E0,-1.100175026E1,-1.050951410E1,1.526216394E1
1.901033333E0,-4.201613286E-1,-1.072840579E1,-1.113714721E1,1.546968889E1
1.910969333E0,2.975364456E-1,-1.024967553E1,-1.126786991E1,1.523513271E1
1.920905333E0,7.965869460E-1,-9.721269087E0,-1.084358892E1,1.458495952E1
1.930841333E0,1.360373433E0,-9.233003191E0,-1.055927625E1,1.409245467E1
1.940777833E0,1.817908410E0,-8.856172947E0,-1.036401667E1,1.375316079E1
1.950713833E0,2.040084478E0,-8.517819135E0,-9.932957590E0,1.324306739E1
1.960648833E0,2.043467385E0,-8.148128341E0,-9.429490687E0,1.262865983E1
1.970584833E0,2.020792467E0,-7.658101264E0,-9.149291528E0,1.210122525E1
1.980520833E0,2.458750674E0,-6.991183049E0,-8.806692054E0,1.150999219E1
1.990456833E0,3.712479956E0,-6.380354835E0,-8.728475019E0,1.143143523E1
2.000392833E0,4.860482516E0,-5.797390358E0,-8.892730908E0,1.167538814E1
2.010328833E0,5.572597076E0,-5.239743741E0,-8.874601032E0,1.171611267E1
2.020264833E0,5.887047470E0,-5.146116954E0,-8.678112366E0,1.168115927E1
2.030200833E0,5.791004614E0,-5.037856926E0,-8.048396477E0,1.112170952E1
2.040136833E0,6.019276990E0,-4.616625264E0,-7.257952908E0,1.049870491E1
2.050072833E0,7.052108113E0,-4.111312104E0,-6.304667891E0,1.031425971E1
2.060007833E0,8.372801170E0,-3.571312383E0,-5.228322374E0,1.049730567E1
2.069943833E0,9.350705888E0,-3.204198164E0,-4.682966604E0,1.093767629E1
2.079879833E0,9.772652664E0,-3.205842108E0,-4.249723592E0,1.112844618E1
2.089815833E0,9.916107084E0,-3.274046371E0,-3.328549145E0,1.096028279E1
2.099751833E0,1.006590105E1,-2.962652316E0,-2.258106392E0,1.073306654E1
2.109687833E0,1.006801190E1,-2.668897850E0,-1.647106855E0,1.054518091E1
2.119623833E0,9.851566687E0,-2.493901795E0,-1.211650087E0,1.023430546E1
2.129559833E0,1.027870345E1,-2.518636102E0,-6.231342638E-1,1.060111168E1
2.139495833E0,1.099120656E1,-2.782146430E0,1.373364776E-1,1.133868695E1
2.149431833E0,1.134213422E1,-2.889129427E0,1.119653504E0,1.175775070E1
2.159367833E0,1.195065045E1,-2.897861951E0,2.575704342E0,1.256383313E1
2.169302833E0,1.231952205E1,-3.308506059E0,4.449805956E0,1.350990780E1
2.179238833E0,1.182172168E1,-3.814592514E0,6.446152968E0,1.399489577E1
2.189174833E0,1.110430925E1,-3.775025575E0,8.417392037E0,1.443637734E1
2.199110833E0,1.034995294E1,-3.672507513E0,9.708546131E0,1.465826406E1
2.209046833E0,9.530952158E0,-3.887824212E0,1.018193905E1,1.447847053E1
2.218982833E0,8.795092932E0,-4.082837625E0,1.023395939E1,1.409812567E1
2.228918833E0,8.546135446E0,-4.164704491E0,1.016448979E1,1.391754458E1
2.238854833E0,8.134308447E0,-4.332901404E0,1.005797106E1,1.364198630E1
2.248790833E0,7.870766251E0,-4.634513651E0,1.024598711E1,1.372617682E1
2.258726833E0,7.909067852E0,-5.128874685E0,1.110833681E1,1.456893464E1
2.268661833E0,7.478309907E0,-6.196096206E0,1.210762831E1,1.552132051E1
2.278597833E0,6.729168731E0,-8.053984661E0,1.269691538E1,1.647300947E1
2.288533833E0,5.463582172E0,-1.003985171E1,1.280229741E1,1.716240576E1
2.298469833E0,3.657135183E0,-1.141868363E1,1.272703556E1,1.748537697E1
2.308405833E0,1.749885996E0,-1.228482701E1,1.240967910E1,1.754933648E1
2.318341833E0,1.191457897E-2,-1.287354807E1,1.155062956E1,1.729582103E1
2.328277833E0,-1.353023190E0,-1.342108134E1,1.016859336E1,1.689249500E1
2.338213833E0,-2.368845347E0,-1.405008621E1,8.692316422E0,1.669049776E1
2.348149833E0,-3.323788634E0,-1.430205209E1,7.552658424E0,1.651178107E1
2.358085833E0,-3.888379405E0,-1.407442583E1,6.765667051E0,1.609295521E1
2.368021833E0,-3.829953734E0,-1.369549585E1,6.304025867E0,1.555557438E1
2.377956833E0,-3.483843299E0,-1.328646557E1,6.067748653E0,1.501615481E1
2.387892833E0,-3.040445428E0,-1.275631841E1,5.968207408E0,1.440789601E1
2.397828833E0,-2.490953337E0,-1.241714950E1,5.974268632E0,1.400294026E1
2.407764833E0,-2.385322216E0,-1.232501141E1,6.028368241E0,1.392612265E1
2.417700833E0,-2.734048989E0,-1.258701696E1,5.994624544E0,1.420716521E1
2.427636833E0,-3.307330476E0,-1.306956896E1,5.601920278E0,1.459909512E1
2.437572833E0,-4.197668462E0,-1.310997088E1,5.091695164E0,1.467709496E1
2.447508833E0,-4.784409948E0,-1.260813944E1,4.616759166E0,1.425377929E1
2.457444833E0,-4.795514980E0,-1.202220283E1,4.126534452E0,1.358523505E1
2.467380833E0,-4.550094768E0,-1.167619969E1,3.501199297E0,1.301135650E1
2.477316833E0,-4.126101466E0,-1.153215704E1,2.634851267E0,1.252828003E1
2.487251833E0,-3.480866774E0,-1.149866769E1,1.637104608E0,1.212501149E1
2.497187833E0,-2.862958751E0,-1.156012778E1,7.746087241E-1,1.193453416E1
2.507123833E0,-2.452470179E0,-1.170733962E1,1.584379095E-1,1.196250448E1
2.517059833E0,-2.011410756E0,-1.165148701E1,-9.083474100E-2,1.182417751E1
2.526995833E0,-1.480438112E0,-1.132715015E1,-1.165198052E-1,1.142408002E1
2.536931833E0,-1.011448586E0,-1.121871704E1,-3.615812910E-1,1.127002136E1
2.546867833E0,-5.850750660E-1,-1.124410682E1,-8.117017061E-1,1.128853891E1
2.556803833E0,-3.217678919E-1,-1.135406020E1,-1.343821135E0,1.143783515E1
2.566739833E0,-3.281960285E-1,-1.152865923E1,-1.951224634E0,1.169722078E1
2.576675833E0,-3.159591217E-1,-1.167938993E1,-2.763779449E0,1.200610079E1
2.586610833E0,-1.444630641E-1,-1.189565271E1,-3.741594704E0,1.247104462E1
2.596546833E0,-2.297692627E-1,-1.225744333E1,-4.517593896E0,1.306546461E1
2.606482833E0,-5.860115341E-1,-1.246074166E1,-5.068914412E0,1.346504310E1
2.616418833E0,-7.523188457E-1,-1.264588322E1,-5.477103859E0,1.380155834E1
2.626354833E0,-8.454946657E-1,-1.281538231E1,-5.784845157E0,1.408592625E1
2.636290833E0,-9.268442727E-1,-1.294401286E1,-6.056334888E0,1.432081358E1
2.646226833E0,-9.903644036E-1,-1.300671490E1,-6.388436272E0,1.452472279E1
2.656162833E0,-9.641276546E-1,-1.301540854E1,-7.050327635E0,1.483366176E1
2.666098833E0,-6.775203860E-1,-1.277502015E1,-7.663000646E0,1.491246970E1
2.676034833E0,-3.463949025E-2,-1.220671990E1,-8.423632770E0,1.483114290E1
2.685970833E0,6.532646737E-1,-1.144270867E1,-9.471108245E0,1.486822881E1
2.695905833E0,1.084283112E0,-1.079398582E1,-1.039752355E1,1.502645320E1
2.705841833E0,1.278792495E0,-1.024411834E1,-1.109805039E1,1.515730825E1
2.715777833E0,1.019728974E0,-9.659127218E0,-1.156164922E1,1.510001055E1
2.725713833E0,5.971708721E-1,-9.128888839E0,-1.175587619E1,1.489610182E1
2.735649833E0,3.461651069E-1,-8.662042463E0,-1.142158385E1,1.433887679E1
2.745585833E0,2.426804996E-1,-8.090911582E0,-1.053999096E1,1.328958816E1
2.755521833E0,4.086984470E-1,-7.463804719E0,-9.677490399E0,1.222821474E1
2.765457833E0,9.590819460E-1,-6.982640267E0,-9.591146320E0,1.190240274E1
2.775393833E0,1.568296913E0,-6.668410313E0,-9.747186871E0,1.191364357E1
2.785329833E0,2.039990338E0,-6.295069102E0,-1.003047161E1,1.201664746E1
2.795264833E0,2.544251000E0,-5.807487330E0,-1.056363476E1,1.232032880E1
2.805200833E0,3.087123458E0,-5.257295913E0,-1.085580259E1,1.245062012E1
2.815136833E0,3.966617782E0,-5.097762235E0,-1.075901129E1,1.254900635E1
2.825072833E0,5.230929648E0,-5.213849931E0,-1.009905944E1,1.251150901E1
2.835008833E0,7.279608071E0,-4.897020597E0,-8.791016838E0,1.241996302E1
2.844944833E0,9.688021234E0,-4.028140723E0,-7.065420468E0,1.264926241E1
2.854880833E0,1.155458228E1,-2.867985018E0,-4.964679022E0,1.289890489E1
2.864816833E0,1.272280217E1,-1.950658477E0,-2.676686341E0,1.314684043E1
2.874752833E0,1.291801965E1,-1.530984076E0,-7.636820322E-1,1.303082324E1
2.884688833E0,1.274735697E1,-1.325052888E0,6.918659449E-1,1.283470114E1
2.894623833E0,1.306320368E1,-1.080457791E0,1.709935772E0,1.321887135E1
2.904559833E0,1.327364497E1,-1.037826838E0,1.606816031E0,1.341076408E1
2.914495833E0,1.287817906E1,-1.238449338E0,2.773515648E-1,1.294056323E1
2.924431833E0,1.238385077E1,-1.583959849E0,-1.400421597E0,1.256303584E1
2.934367833E0,1.165177353E1,-2.249522095E0,-2.380753495E0,1.210339470E1
2.944303333E0,1.119012884E1,-3.257410750E0,-2.097044252E0,1.184176096E1
2.954239333E0,9.966575571E0,-4.617883000E0,-3.224558169E-1,1.098915146E1
2.964175333E0,8.416111497E0,-5.740539050E0,2.637348613E0,1.052332310E1
2.974111333E0,7.392153524E0,-6.164543461E0,5.796547775E0,1.123590210E1
2.984047333E0,6.151874884E0,-6.378566757E0,8.771691790E0,1.246893160E1
2.993983333E0,5.244309247E0,-6.123376724E0,1.159767977E1,1.412461320E1
3.003918333E0,4.715304337E0,-5.744778281E0,1.374053578E1,1.562174434E1
3.013854333E0,3.622833077E0,-5.608000798E0,1.502344764E1,1.644015120E1
3.023790333E0,2.680030071E0,-5.267803944E0,1.529866673E1,1.640065618E1
3.033726333E0,2.538273976E0,-4.897378154E0,1.478371297E1,1.577926857E1
3.043662333E0,2.909723028E0,-4.712378683E0,1.348289577E1,1.457605843E1
3.053598333E0,3.931490049E0,-4.730657079E0,1.159969706E1,1.312968782E1
3.063534333E0,4.785008118E0,-4.845635558E0,9.652171955E0,1.181274355E1
3.073470333E0,4.910017496E0,-4.921021956E0,8.501833432E0,1.098207178E1
3.083406333E0,4.506881797E0,-4.846084040E0,8.553969546E0,1.081512409E1
3.093342333E0,3.913030390E0,-4.839132285E0,9.167967535E0,1.108064244E1
3.103277333E0,3.303650824E0,-5.148585649E0,9.625105194E0,1.140459087E1
3.113213333E0,2.381974393E0,-6.000168874E0,9.188275500E0,1.122943610E1
3.123149333E0,1.456129190E0,-7.107235662E0,8.153887848E0,1.091416502E1
3.133085333E0,8.567667818E-1,-8.246611825E0,7.154105773E0,1.095088514E1
3.143021333E0,1.478623429E-1,-8.992011952E0,6.359141137E0,1.101439141E1
3.152957333E0,-6.068105918E-1,-9.231322702E0,5.888576517E0,1.096635178E1
3.162893333E0,-1.117920390E0,-9.575411462E0,5.690985067E0,1.119488998E1
3.172829333E0,-1.443399217E0,-1.001480107E1,5.494200532E0,1.151372577E1
3.182765333E0,-1.509022226E0,-1.036438855E1,5.289280767E0,1.173346450E1
3.192701333E0,-1.232543358E0,-1.100654731E1,5.127808737E0,1.220482156E1
3.202636333E0,-1.006180976E0,-1.190970824E1,5.019769734E0,1.296347325E1
3.212572333E0,-1.398162526E0,-1.300631963E1,4.927476112E0,1.397852744E1
3.222508333E0,-2.335763555E0,-1.403279833E1,4.893890875E0,1.504411474E1
3.232444333E0,-3.353476995E0,-1.450951715E1,4.662450478E0,1.560481785E1
3.242380333E0,-4.327389818E0,-1.451039423E1,3.971396127E0,1.565406754E1
3.252316333E0,-4.765250961E0,-1.461088565E1,3.003005998E0,1.565897957E1
3.262252333E0,-4.601188615E0,-1.475120362E1,2.102503213E0,1.559453317E1
3.272188333E0,-4.157367990E0,-1.473675749E1,1.156476930E0,1.535555824E1
3.282124333E0,-3.605246991E0,-1.448885893E1,1.210291779E-1,1.493115827E1
3.292060333E0,-3.016052306E0,-1.394075146E1,-6.189494115E-1,1.427670204E1
3.301996333E0,-2.620173002E0,-1.314912383E1,-6.924319553E-1,1.342550655E1
3.311931333E0,-2.450459906E0,-1.236339488E1,-3.368300271E-1,1.260839962E1
3.321867333E0,-2.340061259E0,-1.196485567E1,4.560769737E-2,1.219162573E1
3.331803333E0,-2.267186095E0,-1.190719160E1,2.639246035E-1,1.212398453E1
3.341739333E0,-2.255834456E0,-1.200980439E1,1.453775686E-1,1.222069250E1
3.351675333E0,-2.257603824E0,-1.190290442E1,-2.974408436E-1,1.211876148E1
3.361611333E0,-2.290683715E0,-1.160784690E1,-7.107957208E-1,1.185304063E1
3.371547333E0,-2.197991899E0,-1.154249491E1,-1.007981041E0,1.179306504E1
3.381483333E0,-2.012918899E0,-1.145275185E1,-1.417332330E0,1.171435864E1
3.391419333E0,-1.501805300E0,-1.141505719E1,-2.143413257E0,1.171124119E1
3.401355333E0,-8.849002214E-1,-1.153508766E1,-3.099529495E0,1.197699373E1
3.411290333E0,-5.028618617E-1,-1.163909559E1,-4.008186808E0,1.232018579E1
3.421226333E0,-4.042959322E-1,-1.185472454E1,-4.860758797E0,1.281892839E1
3.431162333E0,-4.563851219E-1,-1.202943934E1,-5.495324952E0,1.323307578E1
3.441098333E0,-7.792293401E-1,-1.222846336E1,-5.390061622E0,1.338638408E1
3.451034333E0,-1.236657898E0,-1.255565951E1,-4.749410854E0,1.348075710E1
3.460970333E0,-1.336690747E0,-1.286497839E1,-4.412494288E0,1.366618151E1
3.470906333E0,-8.296826251E-1,-1.304897857E1,-4.939103301E0,1.397708684E1
3.480842333E0,5.018013230E-1,-1.290916346E1,-6.519758888E0,1.447085214E1
3.490778333E0,2.035256286E0,-1.259811615E1,-8.462202759E0,1.531220670E1
3.500714333E0,3.120775646E0,-1.194950322E1,-9.801242040E0,1.576687076E1
3.510649333E0,3.396577991E0,-1.105754673E1,-9.988816041E0,1.528340694E1
3.520585333E0,2.858603160E0,-1.036074924E1,-9.229197823E0,1.416668025E1
3.530521333E0,1.989531790E0,-1.014243292E1,-8.056559774E0,1.310478301E1
3.540457333E0,1.627490323E0,-9.985152175E0,-7.143790700E0,1.238489945E1
3.550393333E0,2.183924521E0,-9.460945784E0,-6.999716476E0,1.196975573E1
3.560329333E0,2.894099268E0,-8.859615203E0,-7.603623340E0,1.202845293E1
3.570265333E0,3.293600045E0,-8.186567352E0,-8.636115324E0,1.234707148E1
3.580201333E0,3.561226228E0,-7.647629485E0,-9.490667181E0,1.269808381E1
3.590137333E0,3.819274380E0,-7.024787582E0,-9.907904609E0,1.273189189E1
3.600073333E0,3.970388359E0,-6.241278226E0,-9.552336595E0,1.208158400E1
3.610008333E0,4.007427839E0,-5.720148640E0,-8.618960763E0,1.109351446E1
3.619944333E0,4.012765762E0,-5.525020621E0,-8.063785179E0,1.056658759E1
3.629880333E0,4.185235235E0,-5.448440223E0,-8.142076473E0,1.065340810E1
3.639816333E0,4.518829413E0,-5.300861177E0,-8.511401231E0,1.099831348E1
3.649752333E0,4.834508307E0,-5.046993785E0,-8.941076857E0,1.134845682E1
3.659688333E0,5.351198103E0,-4.910092925E0,-8.956522277E0,1.153098543E1
3.669624333E0,5.755682169E0,-4.595618265E0,-8.496709517E0,1.124462792E1
3.679560333E0,6.433826453E0,-3.968659045E0,-7.262956370E0,1.048307744E1
3.689496333E0,7.850547164E0,-3.346476123E0,-5.371033612E0,1.008355073E1
3.699432333E0,9.257487822E0,-2.700555845E0,-3.334108093E0,1.020344841E1
3.709367333E0,1.042893245E1,-1.960301852E0,-1.510100745E0,1.071848029E1
3.719303333E0,1.145856515E1,-1.488041978E0,-1.373394012E-1,1.155559805E1
3.729239333E0,1.186751707E1,-1.346573419E0,6.131220764E-1,1.195939548E1
3.739175333E0,1.170209116E1,-1.215201540E0,8.643950593E-1,1.179672968E1
3.749111333E0,1.156680296E1,-1.210060375E0,6.914127856E-1,1.165046044E1
3.759047333E0,1.129443381E1,-1.452619984E0,1.012521404E-1,1.138791429E1
3.768983333E0,1.117547805E1,-1.864927917E0,-6.931862462E-1,1.135120139E1
3.778919333E0,1.097917299E1,-2.284873191E0,-1.263782108E0,1.128539012E1
3.788855333E0,1.079084353E1,-2.731103454E0,-1.599256750E0,1.124539249E1
3.798791333E0,1.093613397E1,-3.218914436E0,-1.586509820E0,1.150988488E1
3.808726333E0,1.057422173E1,-3.803079346E0,-9.533698010E-1,1.127769887E1
3.818662333E0,9.562527122E0,-4.434459938E0,5.566905981E-1,1.055539030E1
3.828598333E0,8.529552158E0,-4.874455023E0,2.747954544E0,1.020121689E1
3.838534333E0,7.846697942E0,-5.102345867E0,5.205523496E0,1.070990555E1
3.848470333E0,7.499196746E0,-5.412774546E0,7.202621875E0,1.172236503E1
3.858406333E0,7.269575418E0,-5.430136099E0,8.743038679E0,1.260054880E1
3.868342333E0,7.015471213E0,-4.948610873E0,1.001988581E1,1.319483602E1
3.878278333E0,6.840394467E0,-4.784405855E0,1.106778286E1,1.386280467E1
3.888214333E0,6.145296766E0,-4.971289299E0,1.226620947E1,1.459240503E1
3.898150333E0,5.290655447E0,-4.904707054E0,1.343222614E1,1.524702874E1
3.908085333E0,4.852567140E0,-5.052945666E0,1.424384540E1,1.587346211E1
3.918021333E0,4.483169584E0,-5.956146941E0,1.403110966E1,1.588856614E1
3.927957333E0,3.916088776E0,-7.481710648E0,1.258584518E1,1.515635987E1
3.937893333E0,3.322635563E0,-9.053576117E0,1.095403581E1,1.459445265E1
3.947830583E0,2.286550465E0,-1.006104085E1,1.008733812E1,1.442938828E1
3.957766583E0,9.386283857E-1,-1.050240038E1,1.008339242E1,1.458959354E1
3.967702583E0,-2.535905269E-1,-1.097698847E1,1.026983439E1,1.503423036E1
3.977638583E0,-1.276359761E0,-1.149452670E1,9.968783480E0,1.526859137E1
3.987574583E0,-2.089748096E0,-1.195167839E1,9.401685423E0,1.534931113E1
3.997510583E0,-2.582066697E0,-1.238531609E1,8.895987223E0,1.546614728E1
4.007446583E0,-3.106546739E0,-1.255516250E1,8.427231731E0,1.543700012E1
4.017381583E0,-3.318501289E0,-1.297354715E1,7.846802022E0,1.552087879E1
4.027317583E0,-3.485201315E0,-1.329764194E1,7.175663872E0,1.550690367E1
4.037253583E0,-3.766069103E0,-1.347847878E1,6.891014982E0,1.559931903E1
4.047189583E0,-3.942468781E0,-1.399150062E1,6.753734053E0,1.602866412E1
4.057125583E0,-4.330482996E0,-1.482785360E1,6.356939076E0,1.670416115E1
4.067061583E0,-5.129726624E0,-1.554109697E1,5.692857345E0,1.732767771E1
4.076997583E0,-5.688024037E0,-1.542900818E1,5.095570114E0,1.721547983E1
4.086933583E0,-5.898313301E0,-1.464755120E1,4.680999016E0,1.646974826E1
4.096869583E0,-5.626292642E0,-1.376246752E1,4.391613296E0,1.550312706E1
4.106805583E0,-5.137457228E0,-1.317579883E1,3.792298835E0,1.464160756E1
4.116740583E0,-4.834431416E0,-1.277197024E1,2.911315809E0,1.396319128E1
4.126676583E0,-4.448324271E0,-1.232653169E1,1.990696848E0,1.325495554E1
4.136612583E0,-3.705164797E0,-1.194217549E1,1.327566460E0,1.257403016E1
4.146548583E0,-3.133159756E0,-1.153507129E1,1.083794870E0,1.200204862E1
4.156484583E0,-2.596980898E0,-1.129771176E1,1.132534921E0,1.164754206E1
4.166420583E0,-2.388647674E0,-1.105121069E1,1.093734552E0,1.135918794E1
4.176356583E0,-2.606524723E0,-1.076396973E1,6.657183659E-1,1.109505279E1
4.186292583E0,-2.754671241E0,-1.030799332E1,-6.680385411E-2,1.066992984E1
4.196228583E0,-2.472180558E0,-1.000240146E1,-8.471592218E-1,1.033815218E1
4.206164583E0,-2.062448324E0,-1.027123773E1,-1.684123823E0,1.061076296E1
4.216099583E0,-1.916783511E0,-1.067211815E1,-2.689090624E0,1.117136399E1
4.226035583E0,-1.793465879E0,-1.093659941E1,-3.363910182E0,1.158195226E1
4.235971583E0,-1.782737261E0,-1.129137805E1,-3.589530845E0,1.198157344E1
4.245907583E0,-2.057186707E0,-1.164702910E1,-3.675527015E0,1.238526555E1
4.255843583E0,-2.398943598E0,-1.175947222E1,-3.630715123E0,1.253882808E1
4.265779583E0,-2.565090476E0,-1.167226568E1,-3.538028569E0,1.246351160E1
4.275715583E0,-2.318798152E0,-1.157295189E1,-3.606888889E0,1.234178625E1
4.285651583E0,-1.821298333E0,-1.163371616E1,-3.985066917E0,1.243146160E1
4.295587583E0,-1.424560658E0,-1.192328080E1,-4.566433935E0,1.284703534E1
4.305522583E0,-9.954422718E-1,-1.223351886E1,-5.219417065E0,1.333762361E1
4.315458583E0,-4.944126351E-1,-1.240858216E1,-6.044959715E0,1.381154926E1
4.325394583E0,2.216387093E-3,-1.242120279E1,-7.075516271E0,1.429507657E1
4.335330583E0,6.198146532E-1,-1.219898287E1,-7.944534724E0,1.457103240E1
4.345266583E0,1.309661701E0,-1.172375626E1,-8.688829143E0,1.465119198E1
4.355202583E0,2.024638181E0,-1.111523653E1,-9.384561852E0,1.468732937E1
4.365138583E0,2.757856219E0,-1.053662764E1,-9.743656906E0,1.461386817E1
4.375074583E0,3.075364122E0,-1.001147868E1,-9.620374796E0,1.422108227E1
4.385010583E0,2.463249229E0,-9.623322963E0,-9.143654813E0,1.350119865E1
4.394946583E0,1.801846985E0,-9.486584655E0,-8.576985941E0,1.291536406E1
4.404881583E0,1.588100263E0,-9.201128265E0,-8.181207794E0,1.241430565E1
4.414817583E0,1.400921534E0,-8.720591218E0,-8.066449170E0,1.196155904E1
4.424753583E0,1.224447011E0,-8.471004573E0,-8.058547828E0,1.175573826E1
4.434689583E0,1.203316343E0,-8.282724229E0,-8.046763934E0,1.161042207E1
4.444625583E0,1.565527379E0,-7.840513927E0,-8.024610588E0,1.132779368E1
4.454561583E0,2.516045201E0,-7.332887315E0,-8.331028077E0,1.138014713E1
4.464497583E0,3.756165381E0,-6.832114225E0,-8.917385108E0,1.184509689E1
4.474433583E0,4.985440146E0,-6.131333030E0,-9.648075981E0,1.247129618E1
4.484369583E0,6.048217784E0,-5.603645791E0,-1.018230625E1,1.310195196E1
4.494305583E0,6.606163194E0,-5.249799197E0,-9.883920500E0,1.299590967E1
4.504240583E0,6.783197004E0,-4.865445340E0,-8.467334275E0,1.189033514E1
4.514176583E0,6.903738524E0,-4.466868131E0,-6.336834009E0,1.038123219E1
4.524112583E0,7.134502398E0,-4.165593268E0,-4.261892817E0,9.296075630E0
4.534048583E0,7.263422978E0,-3.816873805E0,-2.739034617E0,8.650326562E0
4.543984583E0,7.608241471E0,-3.401403698E0,-1.714238738E0,8.508436980E0
4.553920583E0,8.504514381E0,-3.062295888E0,-1.101054681E0,9.105863076E0
4.563856583E0,9.710664577E0,-2.686980364E0,-6.637192029E-1,1.009739537E1
4.573792583E0,1.064805101E1,-2.284445321E0,-5.677049983E-1,1.090513502E1
4.583728583E0,1.114607591E1,-1.907951730E0,-4.169667023E-1,1.131588040E1
4.593664583E0,1.156324434E1,-1.663943620E0,2.915450960E-1,1.168598848E1
4.603599583E0,1.189129770E1,-1.569149437E0,1.242436262E0,1.205855874E1
4.613535583E0,1.181094760E1,-1.569290355E0,1.969497183E0,1.207642640E1
4.623471583E0,1.132750449E1,-1.743557554E0,2.523592787E0,1.173545361E1
4.633407583E0,1.062312199E1,-2.076955558E0,2.907473019E0,1.120793757E1
4.643343583E0,1.014687447E1,-2.497466550E0,3.320557171E0,1.096460216E1
4.653279583E0,1.006649864E1,-3.018128067E0,4.116835091E0,1.128679862E1
4.663215583E0,9.855671432E0,-3.241158706E0,5.290609254E0,1.164602573E1
4.673151583E0,9.476647312E0,-3.367227892E0,6.475833435E0,1.196166739E1
4.683087583E0,9.339174594E0,-3.280635013E0,7.855748262E0,1.263706963E1
4.693023583E0,9.268270673E0,-3.035877290E0,9.167369365E0,1.338499358E1
4.702958583E0,9.328903375E0,-3.259107027E0,1.029288880E1,1.426862911E1
4.712894583E0,8.852137198E0,-3.899803988E0,1.149254566E1,1.502156483E1
4.722830583E0,7.935798984E0,-4.643354056E0,1.263768659E1,1.562846009E1
4.732766583E0,6.862622073E0,-5.147776394E0,1.358904846E1,1.607038959E1
4.742702583E0,5.728696100E0,-5.015277318E0,1.423295554E1,1.614149897E1
4.752638583E0,4.612297155E0,-4.695560337E0,1.457199231E1,1.598951318E1
4.762574583E0,3.607723871E0,-4.753598045E0,1.393657889E1,1.516049462E1
4.772510583E0,2.686185435E0,-5.168631073E0,1.220799927E1,1.352647721E1
4.782446583E0,2.000446495E0,-5.582166629E0,1.025429834E1,1.184537905E1
4.792382583E0,1.792843150E0,-6.179414685E0,8.553380731E0,1.070325999E1
4.802317583E0,1.670900930E0,-7.170937568E0,7.154725578E0,1.026666224E1
4.812253583E0,1.555856085E0,-8.306613028E0,6.322822326E0,1.055455306E1
4.822189583E0,1.286463165E0,-9.035700009E0,6.473280541E0,1.118937992E1
4.832125583E0,5.505694404E-1,-9.548484449E0,7.338022925E0,1.205500985E1
4.842061583E0,-4.924185884E-1,-1.029755487E1,8.036081656E0,1.307137027E1
4.851997583E0,-1.708283933E0,-1.108644601E1,8.285473589E0,1.394548643E1
4.861933583E0,-2.883980661E0,-1.157938032E1,8.104590558E0,1.442510940E1
4.871869583E0,-3.559577313E0,-1.192163306E1,7.378493258E0,1.446506440E1
4.881805583E0,-3.740184941E0,-1.244374965E1,6.337908143E0,1.445700413E1
4.891741583E0,-3.870481078E0,-1.302699304E1,5.094190755E0,1.451323365E1
4.901676583E0,-3.817626050E0,-1.354682455E1,3.838978912E0,1.458864226E1
4.911612583E0,-3.495587724E0,-1.376030288E1,3.149513249E0,1.454250675E1
4.921548583E0,-3.463714259E0,-1.353158904E1,3.060484128E0,1.429922311E1
4.931484583E0,-3.731557082E0,-1.328753445E1,3.247419028E0,1.417846325E1
4.941419875E0,-4.132441894E0,-1.314821635E1,3.616551998E0,1.424893391E1
4.951355875E0,-4.729493483E0,-1.273877326E1,4.170820679E0,1.421408449E1
4.961291875E0,-5.230741367E0,-1.247798627E1,4.411861035E0,1.423113890E1
4.971227875E0,-5.619721541E0,-1.245268186E1,3.717764962E0,1.415882523E1
4.981163875E0,-5.723144753E0,-1.234378799E1,2.494544404E0,1.383279580E1
4.991098875E0,-5.485265402E0,-1.203666416E1,1.236308965E0,1.328525049E1
5.001034875E0,-4.988060868E0,-1.164813539E1,1.129951036E-1,1.267172353E1
5.010970875E0,-4.352481098E0,-1.129846722E1,-5.676219678E-1,1.212112403E1
5.020906875E0,-3.835709733E0,-1.103815151E1,-8.622005993E-1,1.171737376E1
5.030842875E0,-3.486138623E0,-1.085054945E1,-9.551070088E-1,1.143677469E1
5.040778875E0,-3.264777072E0,-1.068702388E1,-7.406036568E-1,1.119909561E1
5.050714875E0,-3.292740504E0,-1.053351458E1,-4.629796118E-1,1.104587795E1
5.060650875E0,-3.190672092E0,-1.064228098E1,-4.631544435E-1,1.111993907E1
5.070586875E0,-2.917874631E0,-1.099126971E1,-7.394336289E-1,1.139599773E1
5.080522875E0,-2.657849828E0,-1.124784904E1,-1.228735651E0,1.162273914E1
5.090457875E0,-2.449331540E0,-1.149102421E1,-1.934782848E0,1.190740304E1
5.100393875E0,-2.461951147E0,-1.175368465E1,-2.736127966E0,1.231652153E1
5.110329875E0,-2.602558849E0,-1.206512373E1,-3.510670032E0,1.283219884E1
5.120265875E0,-2.705349100E0,-1.219076168E1,-4.267559938E0,1.319642573E1
5.130201875E0,-2.630906736E0,-1.208095331E1,-5.051617178E0,1.335626966E1
5.140137875E0,-2.431280747E0,-1.197736988E1,-5.593381004E0,1.344077477E1
5.150073875E0,-2.148053023E0,-1.189269051E1,-5.960863890E0,1.347524091E1
5.160009875E0,-1.575510915E0,-1.175926289E1,-6.352136757E0,1.345779105E1
5.169945875E0,-7.827313837E-1,-1.175690179E1,-6.896158193E0,1.365263366E1
5.179881875E0,-9.820983410E-2,-1.181119202E1,-7.524452625E0,1.400468812E1
5.189816875E0,5.195619482E-1,-1.168504535E1,-8.154383107E0,1.425847795E1
5.199752875E0,1.120042929E0,-1.128965195E1,-8.624915568E0,1.425131243E1
5.209688875E0,1.578550883E0,-1.075736588E1,-9.004899216E0,1.411739896E1
5.219624875E0,2.084918589E0,-9.932045424E0,-9.388180693E0,1.382499000E1
5.229560875E0,2.641180001E0,-9.091138045E0,-9.702159217E0,1.355568206E1
5.239496875E0,3.299139697E0,-8.412986160E0,-9.924021875E0,1.342195474E1
5.249432875E0,3.701246870E0,-7.717892552E0,-9.918557067E0,1.310125445E1
5.259368875E0,3.811950157E0,-7.164776357E0,-9.752784410E0,1.268785987E1
5.269304875E0,3.752035785E0,-6.833843831E0,-9.626426665E0,1.238738408E1
5.279239875E0,3.512964479E0,-6.511079282E0,-9.492418422E0,1.203499399E1
5.289175875E0,3.142815263E0,-6.154471632E0,-9.296718546E0,1.158377247E1
5.299111875E0,2.790211203E0,-5.900265101E0,-9.045840835E0,1.115462430E1
5.309047875E0,2.820468205E0,-5.786296436E0,-8.518390408E0,1.067704278E1
5.318983875E0,3.288345444E0,-5.634759995E0,-7.739770494E0,1.012263717E1
5.328919875E0,4.125693038E0,-5.133018022E0,-6.597084807E0,9.321520531E0
5.338855875E0,5.259005054E0,-4.468104233E0,-5.302434078E0,8.702694798E0
5.348791875E0,6.259395239E0,-3.791529926E0,-3.812554759E0,8.251745375E0
5.358727875E0,7.093942602E0,-2.994411761E0,-2.342585210E0,8.048492337E0
5.368662875E0,7.689435908E0,-2.209341929E0,-1.240158187E0,8.096086009E0
5.378598875E0,8.182428693E0,-1.577880938E0,-5.842719144E-1,8.353635211E0
5.388534875E0,8.552747478E0,-1.068412307E0,-3.160876143E-1,8.625016270E0
5.398470875E0,8.854025849E0,-7.009897940E-1,-3.831107390E-1,8.889990679E0
5.408406875E0,9.168973256E0,-6.730538441E-1,-8.526825017E-1,9.233100211E0
5.418342875E0,9.653407472E0,-8.408259563E-1,-1.664599970E0,9.831894892E0
5.428278875E0,1.038171034E1,-8.918006667E-1,-2.269801993E0,1.066429647E1
5.438214875E0,1.107219167E1,-9.940118967E-1,-2.492415433E0,1.139270041E1
5.448150875E0,1.146604725E1,-1.271323554E0,-2.339958056E0,1.177123217E1
5.458086875E0,1.174580728E1,-1.783600164E0,-1.451667765E0,1.196881604E1
5.468021875E0,1.183978841E1,-2.434159916E0,2.742706668E-1,1.209053136E1
5.477957875E0,1.155350639E1,-2.587869474E0,2.863420097E0,1.218112281E1
5.487893875E0,1.131887049E1,-2.413375111E0,5.836690080E0,1.296179616E1
5.497829875E0,1.122172368E1,-2.305536959E0,8.309898579E0,1.415263217E1
5.507765875E0,1.060162763E1,-2.344729091E0,9.818106580E0,1.463856140E1
5.517701875E0,9.912215177E0,-2.513502831E0,1.022803967E1,1.446314287E1
5.527637875E0,9.147177760E0,-2.593417020E0,9.710207325E0,1.358987855E1
5.537573875E0,8.970089571E0,-2.283973597E0,8.681094446E0,1.269017112E1
5.547509875E0,9.099483191E0,-1.897073862E0,7.237739668E0,1.178067736E1
5.557445875E0,8.753268968E0,-1.796269911E0,5.730585920E0,1.061536237E1
5.567380875E0,7.766428535E0,-1.961829144E0,4.983921624E0,9.434281135E0
5.577316875E0,6.534848213E0,-2.138864416E0,5.027671661E0,8.518008246E0
5.587252875E0,5.601437883E0,-2.202439437E0,5.338377498E0,8.045192362E0
5.597188875E0,4.930945850E0,-2.192706454E0,5.546772848E0,7.738790448E0
5.607124875E0,4.290916934E0,-2.251411622E0,5.516939185E0,7.342849610E0
5.617060875E0,3.572549653E0,-2.414777858E0,5.330826988E0,6.856528240E0
5.626996875E0,2.866610630E0,-2.755562649E0,5.594701306E0,6.863764617E0
5.636932875E0,2.046077874E0,-3.382947546E0,6.513010617E0,7.619060051E0
5.646868875E0,1.127340547E0,-4.141213887E0,7.664520337E0,8.784385076E0
5.656803875E0,1.191992918E-1,-5.027420815E0,8.766265574E0,1.010626443E1
5.666739875E0,-7.116847900E-1,-6.301208678E0,9.621413262E0,1.152316446E1
5.676675875E0,-1.069925274E0,-7.831603355E0,1.008636046E1,1.281457836E1
5.686611875E0,-1.530599329E0,-9.457829803E0,1.002699485E1,1.386844997E1
5.696547875E0,-2.234247998E0,-1.090419414E1,9.822143497E0,1.484479090E1
5.706483875E0,-3.005732555E0,-1.189732969E1,9.778939006E0,1.569103343E1
5.716419875E0,-3.780826598E0,-1.252123812E1,9.661456164E0,1.626098979E1
5.726355875E0,-4.427087769E0,-1.292235829E1,9.418276312E0,1.659187688E1
5.736291875E0,-4.978423487E0,-1.329677188E1,9.026993505E0,1.682484634E1
5.746227875E0,-5.320272764E0,-1.367045106E1,8.422933443E0,1.691544685E1
5.756162875E0,-5.260377395E0,-1.423145164E1,7.589016995E0,1.696463866E1
5.766098875E0,-5.132278349E0,-1.457814241E1,6.733568176E0,1.685833496E1
5.776034875E0,-4.950555657E0,-1.442749475E1,6.154617228E0,1.644809774E1
5.785970875E0,-4.857485233E0,-1.420532628E1,5.840836340E0,1.610906039E1
5.795906875E0,-5.169102359E0,-1.371617394E1,5.512219897E0,1.566006434E1
5.805842875E0,-5.379374081E0,-1.332662659E1,4.939345375E0,1.519650534E1
5.815778875E0,-5.332256048E0,-1.293885796E1,3.981645126E0,1.454993119E1
5.825714875E0,-5.286672909E0,-1.258988327E1,2.901154518E0,1.395961205E1
5.835650875E0,-4.916986207E0,-1.226603990E1,2.083797385E0,1.337814262E1
5.845585875E0,-4.485469878E0,-1.177977960E1,1.726594489E0,1.272256955E1
5.855521875E0,-4.184136543E0,-1.141222129E1,1.571624563E0,1.225625543E1
5.865457875E0,-3.939746026E0,-1.127527482E1,1.164098191E0,1.200035606E1
5.875393875E0,-3.625831821E0,-1.105975113E1,7.077721256E-1,1.166043279E1
5.885329875E0,-3.343730856E0,-1.070401822E1,2.354977798E-1,1.121659491E1
5.895265875E0,-2.993949246E0,-1.050553566E1,-2.607735389E-1,1.092693984E1
5.905201875E0,-2.488355126E0,-1.046586815E1,-7.601684403E-1,1.078444080E1
5.915137875E0,-2.005849615E0,-1.054606505E1,-1.531163585E0,1.084377160E1
5.925073875E0,-1.652646361E0,-1.068182102E1,-2.393508611E0,1.107074631E1
5.935009875E0,-1.491494174E0,-1.074016571E1,-2.987700326E0,1.124731379E1
5.944945125E0,-1.640656060E0,-1.080168777E1,-3.206133592E0,1.138628577E1
5.954881125E0,-2.021811783E0,-1.102840070E1,-3.118452255E0,1.163778713E1
5.964817125E0,-2.049034957E0,-1.146497721E1,-2.812249943E0,1.198136037E1
5.974753125E0,-1.646469947E0,-1.198163484E1,-2.700011469E0,1.239195298E1
5.984689125E0,-9.600129689E-1,-1.211333051E1,-3.290267132E0,1.258889426E1
5.994625125E0,-2.520159448E-1,-1.190349733E1,-4.527661048E0,1.273799338E1
6.004561125E0,3.548225675E-1,-1.165868377E1,-5.965523536E0,1.310107924E1
6.014497125E0,3.651160790E-1,-1.137916932E1,-7.127403878E0,1.343200246E1
6.024433125E0,-4.891371310E-2,-1.135461218E1,-7.861607172E0,1.381066536E1
6.034368125E0,-4.216905217E-1,-1.154060276E1,-8.384706686E0,1.427118219E1
6.044304125E0,-5.527441661E-1,-1.148849003E1,-8.667518381E0,1.440197223E1
6.054240125E0,-7.054139435E-1,-1.128143428E1,-8.644717748E0,1.423023236E1
6.064176125E0,-5.671857655E-1,-1.125455930E1,-8.659568506E0,1.421178847E1
6.074112125E0,-6.840774536E-2,-1.110503548E1,-8.606672840E0,1.404995765E1
6.084048125E0,6.237853512E-1,-1.073973769E1,-8.452782310E0,1.368139623E1
6.093984125E0,1.114500061E0,-1.010725607E1,-8.111683230E0,1.300761856E1
6.103920125E0,1.291745832E0,-9.332984147E0,-7.651220260E0,1.213731321E1
6.113856125E0,1.548124604E0,-8.694476969E0,-7.424577504E0,1.153754613E1
6.123791125E0,1.758385216E0,-8.301959229E0,-7.377067707E0,1.124435741E1
6.133727125E0,2.054596975E0,-7.978661998E0,-7.487701705E0,1.113310796E1
6.143663125E0,2.569903904E0,-7.663766631E0,-7.854984616E0,1.127113607E1
6.153599125E0,3.076390309E0,-7.131736665E0,-8.310855183E0,1.137524325E1
6.163535125E0,3.587184357E0,-6.463329164E0,-8.748902267E0,1.145363726E1
6.173471125E0,4.137983301E0,-5.922561704E0,-9.044104212E0,1.157564097E1
6.183407125E0,4.967240102E0,-5.457180056E0,-9.101531471E0,1.171717387E1
6.193343125E0,5.871062937E0,-4.944085128E0,-8.812655044E0,1.168658405E1
6.203279125E0,6.546578313E0,-4.529923043E0,-7.951736739E0,1.125202238E1
6.213215125E0,7.232115816E0,-4.292281966E0,-6.569970683E0,1.067200536E1
6.223150125E0,7.852862077E0,-3.972756189E0,-4.985323201E0,1.011452826E1
6.233086125E0,8.606987420E0,-3.735819117E0,-3.577959205E0,1.004183096E1
6.243022125E0,9.314158452E0,-3.374700049E0,-2.437901257E0,1.020223067E1
6.252958125E0,9.745888789E0,-2.901557976E0,-1.541345927E0,1.028480113E1
6.262894125E0,1.004771271E1,-2.602732512E0,-8.692388928E-1,1.041567681E1
6.272830125E0,1.019252017E1,-2.397359879E0,-4.507981074E-1,1.048036358E1
6.282766125E0,1.033843159E1,-2.281137259E0,1.591693962E-1,1.058829967E1
6.292702125E0,1.053340349E1,-2.433478715E0,7.492364860E-1,1.083677826E1
6.302638125E0,1.092145395E1,-2.718538957E0,1.169642521E0,1.131532917E1
6.312573125E0,1.095799437E1,-3.069676536E0,1.541452346E0,1.148375505E1
6.322509125E0,1.029419857E1,-3.772407777E0,1.968563383E0,1.113897780E1
6.332445125E0,9.348405594E0,-4.419599240E0,3.064913394E0,1.078513972E1
6.342381125E0,8.617255715E0,-4.661011478E0,4.862088454E0,1.093718557E1
6.352317125E0,8.359965363E0,-4.515879493E0,7.117202826E0,1.187167909E1
6.362253125E0,8.736465824E0,-4.062259811E0,9.722069571E0,1.368745508E1
6.372189125E0,9.096913340E0,-3.617167125E0,1.218906716E1,1.563365244E1
6.382125125E0,9.163385657E0,-3.434205408E0,1.393344011E1,1.702651334E1
6.392061125E0,9.043829978E0,-3.315902787E0,1.473770708E1,1.760642161E1
6.401996125E0,8.665166631E0,-3.368437096E0,1.447448648E1,1.720297184E1
6.411932125E0,7.989392223E0,-3.411347473E0,1.353582476E1,1.608372568E1
6.421868125E0,6.780352333E0,-3.343402242E0,1.217841470E1,1.433406087E1
6.431804125E0,5.354187784E0,-3.291756710E0,1.071942798E1,1.242614684E1
6.441740125E0,3.981090226E0,-3.704501722E0,9.434449126E0,1.088950149E1
6.451676125E0,2.421337557E0,-4.370444037E0,8.305304421E0,9.692354625E0
6.461612125E0,7.213864902E-1,-4.953496807E0,7.424349462E0,8.954244470E0
6.471548125E0,-3.750924522E-1,-5.876302627E0,6.786184931E0,8.984649844E0
6.481484125E0,-1.173651664E0,-7.172734417E0,6.668036091E0,9.863482274E0
6.491420125E0,-1.958140721E0,-8.260029430E0,7.264907001E0,1.117323924E1
6.501355125E0,-2.413334765E0,-9.321830583E0,8.185440009E0,1.263812242E1
6.511291125E0,-3.075964047E0,-9.975324175E0,8.992475637E0,1.377799932E1
6.521227125E0,-4.056945277E0,-1.043952059E1,9.567729390E0,1.473037138E1
6.531163125E0,-4.842545597E0,-1.109041861E1,9.561250091E0,1.542287703E1
6.541099125E0,-5.424974177E0,-1.181268890E1,8.876422439E0,1.574042056E1
6.551035125E0,-5.962784700E0,-1.228495682E1,7.911485676E0,1.578184308E1
6.560971125E0,-6.413251855E0,-1.259358104E1,6.948126492E0,1.574816004E1
6.570907125E0,-6.591838101E0,-1.312492221E1,5.929976558E0,1.583920877E1
6.580843125E0,-6.917029245E0,-1.353038568E1,4.876431674E0,1.595920475E1
6.590778125E0,-7.085054834E0,-1.373447924E1,3.903658472E0,1.593965092E1
6.600714125E0,-6.881595118E0,-1.359743571E1,3.486162012E0,1.563329571E1
6.610650125E0,-6.597192981E0,-1.312687284E1,3.881465365E0,1.519550984E1
6.620586125E0,-6.550512904E0,-1.277668193E1,4.502486445E0,1.504743182E1
6.630522125E0,-6.484784938E0,-1.278866404E1,4.648658066E0,1.507356578E1
6.640458125E0,-6.680364361E0,-1.274169803E1,3.935605904E0,1.491533207E1
6.650394125E0,-6.802042580E0,-1.282396017E1,2.640715440E0,1.475449477E1
6.660330125E0,-6.460665758E0,-1.293609690E1,1.375187938E0,1.452494224E1
6.670266125E0,-5.993650398E0,-1.263224751E1,3.597838569E-1,1.398667104E1
6.680201125E0,-5.451934519E0,-1.202159472E1,-2.012500530E-1,1.320162229E1
6.690137125E0,-4.788379623E0,-1.133025970E1,-1.930031401E-1,1.230205733E1
6.700073125E0,-4.209145085E0,-1.080378576E1,-4.413595319E-2,1.159485390E1
6.710009125E0,-3.664482209E0,-1.059725274E1,6.704475939E-2,1.121314811E1
6.719945125E0,-3.084955895E0,-1.051028360E1,9.402498186E-2,1.095407937E1
6.729881125E0,-2.743041421E0,-1.052318723E1,-1.860467076E-2,1.087483756E1
6.739817125E0,-2.642516382E0,-1.065212068E1,-2.773024482E-1,1.097850010E1
6.749753125E0,-2.428230254E0,-1.094007266E1,-4.620434725E-1,1.121583595E1
6.759689125E0,-2.257768277E0,-1.137447400E1,-7.278888863E-1,1.161920818E1
6.769624125E0,-2.213740643E0,-1.199699197E1,-1.177496501E0,1.225622136E1
6.779560125E0,-2.255985461E0,-1.275714053E1,-1.889094459E0,1.309208856E1
6.789496125E0,-2.098245709E0,-1.330015508E1,-2.956929939E0,1.378550669E1
6.799432125E0,-1.701693098E0,-1.354191522E1,-4.284179479E0,1.430501385E1
6.809368125E0,-1.265931252E0,-1.358441863E1,-5.750599769E0,1.480568841E1
6.819304125E0,-1.126685585E0,-1.334377764E1,-7.162176100E0,1.518626316E1
6.829240125E0,-1.089148288E0,-1.296044003E1,-8.037517147E0,1.528924235E1
6.839176125E0,-1.232165336E0,-1.273458314E1,-7.875814737E0,1.502385759E1
6.849112125E0,-1.616839766E0,-1.277349051E1,-7.130424550E0,1.471798848E1
6.859047125E0,-2.086261256E0,-1.301875314E1,-6.797782298E0,1.483409126E1
6.868983125E0,-1.859474511E0,-1.328467282E1,-6.981582506E0,1.512225749E1
6.878919125E0,-6.274465853E-1,-1.304813657E1,-7.544684576E0,1.508541755E1
6.888855125E0,8.183517444E-1,-1.239192695E1,-8.350015740E0,1.496503645E1
6.898791125E0,1.925324392E0,-1.151910956E1,-9.043948091E0,1.477124762E1
6.908727125E0,2.450619535E0,-1.072504247E1,-9.557607275E0,1.457326075E1
6.918663125E0,2.602443367E0,-1.005347806E1,-9.929082055E0,1.436773479E1
6.928599125E0,2.598948486E0,-9.293749915E0,-1.000952337E1,1.390391595E1
6.938535125E0,2.672812561E0,-8.607780302E0,-9.944724526E0,1.342145129E1
6.948470833E0,2.661616312E0,-8.102632325E0,-9.749547392E0,1.295339825E1
6.958405833E0,2.594223644E0,-7.743891612E0,-9.554526377E0,1.256928112E1
6.968341833E0,2.619164942E0,-7.230438834E0,-9.317943354E0,1.208152884E1
6.978277833E0,3.191206235E0,-6.874980748E0,-9.194809763E0,1.191611028E1
6.988213833E0,4.300024849E0,-6.575661778E0,-9.119809282E0,1.203746082E1
6.998149833E0,5.652617392E0,-5.769623101E0,-9.052858078E0,1.213238944E1
7.008085833E0,6.846683732E0,-4.622528613E0,-8.643052461E0,1.195605306E1
7.018021833E0,7.872862478E0,-3.552888391E0,-7.874297969E0,1.168800873E1
7.027957833E0,8.333536533E0,-2.985081066E0,-6.963891170E0,1.126296233E1
7.037892833E0,8.471018021E0,-2.709829529E0,-5.744940834E0,1.058799639E1
7.047828833E0,8.693041477E0,-2.264204746E0,-4.112712804E0,9.879777319E0
7.057764833E0,8.775733970E0,-1.882228805E0,-2.634403371E0,9.353949600E0
7.067700833E0,8.894272819E0,-1.674219078E0,-1.667566262E0,9.202818902E0
7.077636833E0,9.116714936E0,-1.487729152E0,-1.406784537E0,9.343814638E0
7.087572833E0,9.470389037E0,-1.609872663E0,-1.852615435E0,9.783258274E0
7.097508833E0,1.012507371E1,-2.119788605E0,-2.831144051E0,1.072501739E1
7.107444833E0,1.038497192E1,-2.407663843E0,-3.532116449E0,1.123033096E1
7.117380833E0,1.039224235E1,-2.541498131E0,-3.385320346E0,1.122133270E1
7.127315833E0,1.045927483E1,-2.804750889E0,-2.388680565E0,1.108913217E1
7.137251833E0,1.012024508E1,-2.985390384E0,-8.060755152E-1,1.058213938E1
7.147187833E0,9.413319628E0,-3.094964574E0,8.176196730E-1,9.942730714E0
7.157123833E0,8.857689714E0,-3.428389183E0,1.964069797E0,9.698973638E0
7.167059833E0,8.216265945E0,-4.185155128E0,2.684467231E0,9.603588592E0
7.176995833E0,7.861289669E0,-4.888323156E0,3.564695381E0,9.919810063E0
7.186931833E0,7.686160297E0,-5.081618657E0,4.877763669E0,1.042556889E1
7.196867833E0,7.216974451E0,-4.954042937E0,6.670832230E0,1.100578322E1
7.206803833E0,6.864942833E0,-4.768920674E0,8.814214497E0,1.214744507E1
7.216738833E0,6.517623485E0,-4.629647598E0,1.092476933E1,1.353749008E1
7.226674833E0,5.980707586E0,-4.649677820E0,1.275989106E1,1.483924482E1
7.236610833E0,5.391539798E0,-4.523068644E0,1.442997747E1,1.605462865E1
7.246546833E0,5.025833881E0,-4.307180087E0,1.573411239E1,1.706965433E1
7.256482833E0,4.720166590E0,-4.429689195E0,1.617460536E1,1.742182475E1
7.266418833E0,4.563717611E0,-5.701308326E0,1.530303811E1,1.695627938E1
7.276354833E0,4.067785430E0,-7.386331451E0,1.344237573E1,1.586827766E1
7.286290833E0,2.713815868E0,-8.740947715E0,1.162931905E1,1.479898730E1
7.296226833E0,1.267231380E0,-9.714931875E0,1.068470487E1,1.449650630E1
7.306161833E0,-8.794416994E-2,-1.002438699E1,1.102694708E1,1.490267193E1
7.316097833E0,-1.512419166E0,-1.005644845E1,1.193034073E1,1.567649824E1
7.326033833E0,-2.488301624E0,-1.041360573E1,1.249509522E1,1.645485442E1
7.335969833E0,-3.063346048E0,-1.095235298E1,1.234768224E1,1.678700037E1
7.345905833E0,-3.499486063E0,-1.174455598E1,1.135818834E1,1.670896287E1
7.355841833E0,-3.784610916E0,-1.250621663E1,1.007858600E1,1.650171597E1
7.365777833E0,-4.109513208E0,-1.286259974E1,8.870750640E0,1.615626157E1
7.375713833E0,-4.232557921E0,-1.285344183E1,7.893310191E0,1.566620118E1
7.385649833E0,-4.029324492E0,-1.279398851E1,6.917798738E0,1.509230060E1
7.395585833E0,-3.850686792E0,-1.276193291E1,5.800657198E0,1.453761825E1
7.405520833E0,-3.681019304E0,-1.256048931E1,4.731685604E0,1.391778156E1
7.415456833E0,-3.719816457E0,-1.222588006E1,3.982401171E0,1.338539117E1
7.425392833E0,-3.829713414E0,-1.198039523E1,3.785844678E0,1.313503691E1
7.435328833E0,-4.021961678E0,-1.192335681E1,3.750892947E0,1.313056782E1
7.445264833E0,-4.230673363E0,-1.171675364E1,3.762352320E0,1.301292465E1
7.455200833E0,-4.354655093E0,-1.164351960E1,3.796367328E0,1.299796040E1
7.465136833E0,-4.710006175E0,-1.177070356E1,3.690222822E0,1.320421769E1
7.475072833E0,-5.315662819E0,-1.189124858E1,3.221076736E0,1.341765253E1
7.485008833E0,-5.503851362E0,-1.200473135E1,2.490902174E0,1.343914239E1
7.494943833E0,-5.558951429E0,-1.237682242E1,1.451571286E0,1.364531910E1
7.504879833E0,-5.641190178E0,-1.265473473E1,2.097992671E-1,1.385674397E1
7.514815833E0,-5.329403191E0,-1.243600092E1,-8.214788353E-1,1.355475875E1
7.524751833E0,-4.811962613E0,-1.212212005E1,-1.412638770E0,1.311854896E1
7.534687833E0,-4.506364903E0,-1.168874781E1,-1.539441488E0,1.262157003E1
7.544623833E0,-4.368960598E0,-1.116467357E1,-1.291889089E0,1.205847130E1
7.554559833E0,-3.975275754E0,-1.069933226E1,-6.023199302E-1,1.142984329E1
7.564495833E0,-3.605862703E0,-1.039082030E1,2.126608944E-1,1.100075529E1
7.574431833E0,-3.354369864E0,-1.027052320E1,6.629397690E-1,1.082473709E1
7.584366833E0,-3.166412287E0,-1.042261746E1,4.486884320E-1,1.090222192E1
7.594302833E0,-2.949060171E0,-1.083897664E1,-3.234223616E-1,1.123765867E1
7.604238833E0,-3.038693894E0,-1.111050262E1,-1.287175648E0,1.159024375E1
7.614174833E0,-3.047883963E0,-1.122185232E1,-2.259426109E0,1.184586732E1
7.624110833E0,-2.991391674E0,-1.140644073E1,-3.031759096E0,1.217566744E1
7.634046833E0,-3.221062703E0,-1.145595612E1,-3.630898141E0,1.244176824E1
7.643982833E0,-3.406130879E0,-1.148842337E1,-4.188326658E0,1.269360781E1
7.653918833E0,-3.120791141E0,-1.168307952E1,-4.762637841E0,1.299678436E1
7.663854833E0,-2.580733825E0,-1.177138066E1,-5.591783545E0,1.328509063E1
7.673789833E0,-1.968855451E0,-1.156714678E1,-6.650488597E0,1.348718929E1
7.683725833E0,-1.333665544E0,-1.129140261E1,-7.646344267E0,1.370186182E1
7.693661833E0,-9.601049164E-1,-1.107932995E1,-8.179712076E0,1.380510931E1
7.703597833E0,-1.146006613E0,-1.089012574E1,-8.016169547E0,1.357081958E1
7.713533833E0,-1.323015572E0,-1.085838238E1,-7.540635964E0,1.328593349E1
7.723469833E0,-1.080285371E0,-1.081464988E1,-7.483987554E0,1.319597432E1
7.733405833E0,-5.151557788E-1,-1.039377899E1,-7.971071143E0,1.310854692E1
7.743341833E0,2.211218154E-1,-9.988538883E0,-8.848078061E0,1.334572176E1
7.753276833E0,7.484836569E-1,-9.801025693E0,-9.497520702E0,1.366832952E1
7.763212833E0,9.428828198E-1,-9.536800543E0,-9.712834479E0,1.364473328E1
7.773148833E0,1.098480737E0,-9.306217933E0,-9.730927518E0,1.350937832E1
7.783084833E0,1.429306258E0,-9.012932121E0,-9.773729721E0,1.337167358E1
7.793020833E0,1.721983375E0,-8.602665743E0,-9.964584010E0,1.327644603E1
7.802956833E0,1.674398149E0,-8.242992983E0,-1.016587792E1,1.319452979E1
7.812892833E0,1.638704991E0,-7.952691590E0,-1.001897949E1,1.289614700E1
7.822828833E0,2.390492032E0,-7.568640034E0,-9.656256235E0,1.249968194E1
7.832764833E0,3.707263362E0,-7.042035699E0,-9.390677454E0,1.230930101E1
7.842699833E0,5.143650599E0,-6.389241434E0,-9.137167912E0,1.227873711E1
7.852635833E0,6.626116233E0,-5.500494475E0,-8.743315253E0,1.227218063E1
7.862571833E0,7.901689251E0,-4.425838804E0,-8.145239232E0,1.218070869E1
7.872507833E0,8.752865510E0,-3.539341854E0,-7.267335350E0,1.191443488E1
7.882443833E0,9.223842359E0,-3.060489390E0,-5.901524591E0,1.136986612E1
7.892379833E0,9.647139841E0,-2.825747363E0,-4.422411166E0,1.098225277E1
7.902315833E0,1.015244335E1,-2.776981292E0,-3.107422067E0,1.097450696E1
7.912251833E0,1.072494424E1,-2.648741620E0,-2.090800595E0,1.124329615E1
7.922187833E0,1.148209902E1,-2.370322939E0,-1.668058598E0,1.184227378E1
7.932122833E0,1.220810218E1,-2.383199677E0,-1.598314179E0,1.254081368E1
7.942058833E0,1.313199500E1,-2.472087588E0,-1.363044441E0,1.343199166E1
7.951994708E0,1.404477226E1,-2.147066597E0,-6.659265268E-1,1.422353616E1
7.961930708E0,1.446303997E1,-2.094048139E0,4.761738539E-1,1.462160403E1
7.971866708E0,1.429236091E1,-2.812495818E0,2.192322877E0,1.473051231E1
7.981802708E0,1.360501721E1,-3.791779310E0,4.598105963E0,1.485317010E1
7.991738708E0,1.240674847E1,-4.392296251E0,7.409979345E0,1.510388916E1
8.001674708E0,1.166423745E1,-4.744282846E0,1.037276527E1,1.631431624E1
8.011610708E0,1.163586793E1,-5.392215736E0,1.316807232E1,1.838117357E1
8.021545708E0,1.056155432E1,-5.925044432E0,1.500446992E1,1.928177115E1
8.031481708E0,8.938470168E0,-6.206372103E0,1.568690314E1,1.909173207E1
8.041417708E0,7.305224723E0,-6.405228306E0,1.570828757E1,1.847007191E1
8.051353708E0,5.864034584E0,-6.578942651E0,1.546096789E1,1.779637368E1
8.061289708E0,4.998194093E0,-6.498344631E0,1.481723506E1,1.693401553E1
8.071225708E0,4.754235099E0,-6.192286745E0,1.380412308E1,1.585878245E1
8.081161708E0,4.381190634E0,-6.110649090E0,1.233288410E1,1.444419932E1
8.091097708E0,3.942234600E0,-6.444936163E0,1.091712818E1,1.327637389E1
8.101033708E0,3.606199502E0,-7.282516476E0,9.830929524E0,1.275487736E1
8.110968708E0,3.027378362E0,-8.468776199E0,9.327169091E0,1.295690061E1
8.120904708E0,2.125440086E0,-9.558407759E0,9.345762067E0,1.353602316E1
8.130840708E0,1.191996426E0,-1.047716964E1,9.590772098E0,1.425394151E1
8.140776708E0,-1.673590064E-2,-1.132654788E1,9.617241858E0,1.485874517E1
8.150712708E0,-1.233316945E0,-1.216530407E1,9.173054613E0,1.528596169E1
8.160648708E0,-2.360617438E0,-1.285623096E1,8.605470067E0,1.564957840E1
8.170584708E0,-3.315072482E0,-1.317493344E1,8.005151054E0,1.576867211E1
8.180520708E0,-3.870431085E0,-1.346284099E1,7.288313406E0,1.579075161E1
8.190456708E0,-3.931374274E0,-1.334934770E1,6.743918917E0,1.546419187E1
8.200391708E0,-3.546477796E0,-1.281878889E1,6.399343084E0,1.475975763E1
8.210327708E0,-3.341080897E0,-1.253144502E1,6.019020882E0,1.429785118E1
8.220263708E0,-3.127662789E0,-1.277869454E1,5.326243356E0,1.419317360E1
8.230199708E0,-3.193869350E0,-1.319458009E1,4.617716939E0,1.433949284E1
8.240135708E0,-3.351681315E0,-1.368662679E1,3.957802520E0,1.463631516E1
8.250071708E0,-3.524505129E0,-1.400350495E1,3.354141238E0,1.482466023E1
8.260007708E0,-3.845267007E0,-1.389841061E1,2.900085062E0,1.470926202E1
8.269943708E0,-4.363631738E0,-1.361189470E1,2.483018957E0,1.450828530E1
8.279879708E0,-5.036723735E0,-1.322580539E1,2.091778250E0,1.430615429E1
8.289814708E0,-5.409650964E0,-1.266579182E1,1.837478163E0,1.389470878E1
8.299750708E0,-5.396970107E0,-1.203087542E1,1.783417146E0,1.330600715E1
8.309686708E0,-5.293672611E0,-1.138986037E1,2.029260405E0,1.272280577E1
8.319622708E0,-4.916194494E0,-1.093623455E1,2.218062905E0,1.219385080E1
8.329558708E0,-4.505923439E0,-1.067149835E1,2.223366330E0,1.179523552E1
8.339494708E0,-3.976276213E0,-1.037604673E1,1.833009136E0,1.126201761E1
8.349430708E0,-3.190253724E0,-1.022839869E1,1.128302121E0,1.077362168E1
8.359366708E0,-2.876175213E0,-1.026131851E1,2.643958890E-1,1.066006316E1
8.369301708E0,-2.792513836E0,-1.024388445E1,-4.142635345E-1,1.062576663E1
8.379237708E0,-2.745115137E0,-1.027470162E1,-6.130805612E-1,1.065274698E1
8.389173708E0,-2.803643134E0,-1.047449279E1,-4.975530285E-1,1.085462911E1
8.399109708E0,-2.933208370E0,-1.063216062E1,-2.925157338E-1,1.103322783E1
8.409045708E0,-2.925174880E0,-1.092152529E1,-2.834981579E-1,1.131002803E1
8.418981708E0,-2.965407232E0,-1.106645672E1,-5.991460615E-1,1.147253591E1
8.428917708E0,-2.834242491E0,-1.122213766E1,-1.215399322E0,1.163814847E1
8.438853708E0,-2.580741718E0,-1.167118511E1,-1.846623793E0,1.209490840E1
8.448789708E0,-2.536660144E0,-1.214556504E1,-2.638774164E0,1.268513003E1
8.458724708E0,-2.511104888E0,-1.248248979E1,-3.619611261E0,1.323706104E1
8.468660708E0,-2.239369720E0,-1.276755091E1,-4.487992367E0,1.371740531E1
8.478596708E0,-2.034129820E0,-1.287872402E1,-5.148296796E0,1.401799474E1
8.488532708E0,-1.771251429E0,-1.278298639E1,-5.616971011E0,1.407453147E1
8.498468708E0,-1.349066379E0,-1.258875826E1,-5.817060977E0,1.393323412E1
8.508404708E0,-1.008402041E-1,-1.217758673E1,-6.263725687E0,1.369445314E1
8.518340708E0,1.290956165E0,-1.150895762E1,-7.427337974E0,1.375819839E1
8.528276708E0,2.067194509E0,-1.098577450E1,-8.822661384E0,1.424078257E1
8.538211708E0,2.431177251E0,-1.074966861E1,-9.957025899E0,1.485289072E1
8.548147708E0,2.506600486E0,-1.040467002E1,-1.059580029E1,1.506025193E1
8.558083708E0,1.839578775E0,-1.006690327E1,-1.029406409E1,1.451531422E1
8.568019708E0,6.611350259E-1,-9.751161223E0,-9.191649928E0,1.341673109E1
8.577955708E0,3.994466901E-1,-9.682264650E0,-7.956458366E0,1.253838252E1
8.587891708E0,9.624435103E-1,-9.436055356E0,-7.192555894E0,1.190370944E1
8.597827708E0,1.605516779E0,-8.915568963E0,-7.299421361E0,1.163385604E1
8.607763708E0,2.122422338E0,-8.418911728E0,-7.861959175E0,1.171294811E1
8.617699708E0,2.584337171E0,-7.985969263E0,-8.631902990E0,1.204011017E1
8.627634708E0,3.143551428E0,-7.477916974E0,-9.333752471E0,1.236608641E1
8.637570708E0,3.895940732E0,-6.673974524E0,-9.784709038E0,1.246839288E1
8.647506708E0,4.493033836E0,-5.695103846E0,-9.955579298E0,1.231808102E1
8.657442708E0,4.849097110E0,-5.026794578E0,-9.507391387E0,1.179715633E1
8.667378708E0,5.252332796E0,-4.666000907E0,-8.466336156E0,1.100170042E1
8.677314708E0,5.634836594E0,-4.396933970E0,-7.337353418E0,1.024310339E1
8.687250708E0,5.759153076E0,-4.164954168E0,-6.446373993E0,9.595333503E0
8.697186708E0,5.801972237E0,-4.245099906E0,-5.933279065E0,9.321349447E0
8.707122708E0,5.897591169E0,-4.366315318E0,-5.280501173E0,9.040463688E0
8.717057708E0,6.649927264E0,-4.050084447E0,-4.239878635E0,8.865736714E0
8.726993708E0,8.116403688E0,-3.322942834E0,-3.394492289E0,9.404282843E0
8.736929708E0,9.588251948E0,-2.674684255E0,-3.032163139E0,1.040588894E1
8.746865708E0,1.055549778E1,-2.420199396E0,-2.795294187E0,1.118434477E1
8.756801708E0,1.097245220E1,-2.369162851E0,-2.110237325E0,1.142194123E1
8.766737708E0,1.084140206E1,-2.499070149E0,-9.334769887E-1,1.116479868E1
8.776673708E0,1.020427073E1,-2.481694855E0,4.527516621E-1,1.051146682E1
8.786609708E0,1.005013111E1,-2.140363642E0,1.838463419E0,1.043868956E1
8.796544708E0,1.012952695E1,-1.892002572E0,2.815141391E0,1.068232236E1
8.806480708E0,9.916243908E0,-1.571240401E0,3.576425480E0,1.065793173E1
8.816416708E0,1.022689127E1,-1.302256494E0,4.242170159E0,1.114814714E1
8.826352708E0,1.118198834E1,-1.242063502E0,4.537011915E0,1.213111957E1
8.836288708E0,1.213547976E1,-1.179112963E0,4.733320486E0,1.307916279E1
8.846224708E0,1.227340857E1,-1.688214535E0,5.421947658E0,1.352346637E1
8.856160708E0,1.173116001E1,-2.534869727E0,6.985470904E0,1.388677368E1
8.866096708E0,1.078003320E1,-3.510184713E0,8.996537113E0,1.447301601E1
8.876032708E0,9.342075398E0,-4.541701382E0,1.092457052E1,1.507473599E1
8.885967708E0,8.347858703E0,-5.015511206E0,1.259814889E1,1.592342466E1
8.895903708E0,7.711623752E0,-5.397827309E0,1.376349663E1,1.667451709E1
8.905839708E0,6.771123673E0,-5.882070320E0,1.426526141E1,1.685065429E1
8.915775708E0,5.827802896E0,-6.339199208E0,1.430525987E1,1.669698156E1
8.925711708E0,4.469025169E0,-6.804253997E0,1.390465543E1,1.611240209E1
8.935647708E0,2.584865175E0,-7.245629316E0,1.311705420E1,1.520650463E1
8.945583250E0,1.108326863E0,-7.804141322E0,1.230800069E1,1.461574122E1
8.955519250E0,1.141990453E-2,-9.115009888E0,1.143586509E1,1.462404000E1
8.965455250E0,-1.213812388E0,-1.072754859E1,1.037530998E1,1.497333284E1
8.975390250E0,-2.782623855E0,-1.150596385E1,9.529009128E0,1.519645401E1
8.985326250E0,-4.025291083E0,-1.179362347E1,9.010762219E0,1.537811297E1
8.995262250E0,-4.613512791E0,-1.243659032E1,8.471253079E0,1.573897734E1
9.005198250E0,-4.839613511E0,-1.280583146E1,8.031182274E0,1.587170650E1
9.015134250E0,-4.550285679E0,-1.305877266E1,7.861000816E0,1.590697888E1
9.025070250E0,-4.131840801E0,-1.356293479E1,7.331965209E0,1.596192415E1
9.035006250E0,-4.060945065E0,-1.364631960E1,6.509719219E0,1.565534278E1
9.044942250E0,-4.139368506E0,-1.331120982E1,5.803791890E0,1.509989003E1
9.054877250E0,-4.115313061E0,-1.314291175E1,5.423349820E0,1.480150851E1
9.064813250E0,-4.151983289E0,-1.275466014E1,5.334571545E0,1.443530305E1
9.074749250E0,-4.009280822E0,-1.232235444E1,5.360084701E0,1.402302605E1
9.084685250E0,-3.925129156E0,-1.260926795E1,4.866143498E0,1.407407652E1
9.094621250E0,-4.055924353E0,-1.291332551E1,3.849046063E0,1.407194562E1
9.104557250E0,-4.321517460E0,-1.307472269E1,2.898611564E0,1.407216528E1
9.114493250E0,-4.938647218E0,-1.282387597E1,2.126905398E0,1.390560167E1
9.124429250E0,-5.179939004E0,-1.225480039E1,1.708114364E0,1.341378229E1
9.134365250E0,-4.973626431E0,-1.164130116E1,1.754331926E0,1.278023995E1
9.144300250E0,-5.083265233E0,-1.106011833E1,2.244846661E0,1.237760637E1
9.154236250E0,-5.248750792E0,-1.056540530E1,2.541553679E0,1.206800187E1
9.164172250E0,-4.737253616E0,-1.062382366E1,2.306205003E0,1.185857422E1
9.174108250E0,-4.280046083E0,-1.109199735E1,1.565810677E0,1.199178731E1
9.184044250E0,-4.008744340E0,-1.145883061E1,6.211093730E-1,1.215568209E1
9.193980250E0,-3.659556807E0,-1.147794867E1,-1.978884888E-1,1.204885146E1
9.203916250E0,-3.381975154E0,-1.123155870E1,-5.589254040E-1,1.174300065E1
9.213852250E0,-3.368473641E0,-1.077692482E1,-6.398590547E-1,1.130920611E1
9.223787250E0,-3.407884459E0,-1.040914080E1,-6.327342224E-1,1.097106382E1
9.233723250E0,-3.465817210E0,-1.050812714E1,-4.769567961E-1,1.107520261E1
9.243659250E0,-3.830258374E0,-1.075778454E1,-2.850096631E-1,1.142287345E1
9.253595250E0,-4.185611211E0,-1.104608151E1,-2.884571815E-1,1.181602579E1
9.263531250E0,-4.352775798E0,-1.131857579E1,-5.192099458E-1,1.213780845E1
9.273467250E0,-4.195845008E0,-1.148891922E1,-1.018390254E0,1.227344690E1
9.283403250E0,-3.781296129E0,-1.155731176E1,-1.678942605E0,1.227552458E1
9.293339250E0,-2.963737852E0,-1.156501137E1,-2.466450287E0,1.219084112E1
9.303275250E0,-1.989604734E0,-1.166870122E1,-3.272712328E0,1.228119543E1
9.313210250E0,-1.515080088E0,-1.182426756E1,-4.153970173E0,1.262395497E1
9.323146250E0,-1.274453861E0,-1.204271954E1,-5.056060477E0,1.312307411E1
9.333082250E0,-1.067720289E0,-1.196946796E1,-5.906300597E0,1.339001779E1
9.343018250E0,-8.806874487E-1,-1.160683066E1,-6.336803019E0,1.325327133E1
9.352954250E0,-9.093329582E-1,-1.123389758E1,-6.201408402E0,1.286408984E1
9.362890250E0,-1.130186094E0,-1.091255215E1,-5.844086807E0,1.243038478E1
9.372826250E0,-1.095025325E0,-1.079192409E1,-6.055715083E0,1.242321984E1
9.382762250E0,-6.860117126E-1,-1.080075105E1,-6.921570193E0,1.284659368E1
9.392697250E0,-2.529815394E-1,-1.058248034E1,-7.892326689E0,1.320385210E1
9.402633250E0,2.060579261E-1,-1.028754561E1,-8.535049126E0,1.336873659E1
9.412569250E0,8.687453878E-1,-9.716697734E0,-8.858089664E0,1.317705149E1
9.422505250E0,1.408814691E0,-8.917373999E0,-8.760832926E0,1.258000443E1
9.432441250E0,1.786268249E0,-8.096909655E0,-8.336380033E0,1.175780304E1
9.442377250E0,2.062283140E0,-7.743441961E0,-7.906176404E0,1.125706580E1
9.452313250E0,2.399468678E0,-7.474727903E0,-7.670350011E0,1.097557636E1
9.462249250E0,2.837472492E0,-7.024006394E0,-7.803854223E0,1.087603129E1
9.472185250E0,3.285208998E0,-6.476043935E0,-8.206619793E0,1.095811807E1
9.482120250E0,3.389540867E0,-5.621313154E0,-8.868818135E0,1.103377016E1
9.492056250E0,3.472366092E0,-4.636856338E0,-9.256321887E0,1.091958140E1
9.501992250E0,4.014097173E0,-3.908638838E0,-9.063537433E0,1.065542794E1
9.511928250E0,4.681303656E0,-3.504686284E0,-8.624381717E0,1.042004750E1
9.521864250E0,5.428057414E0,-3.107110995E0,-7.730231346E0,9.943561871E0
9.531800250E0,6.235007672E0,-2.487395014E0,-6.471966087E0,9.324634023E0
9.541736250E0,6.862051384E0,-2.184624141E0,-5.232676211E0,8.901754443E0
9.551672250E0,7.103592262E0,-2.120065325E0,-4.408488361E0,8.624990993E0
9.561607250E0,7.235241153E0,-1.824833998E0,-3.858903884E0,8.400587649E0
9.571543250E0,7.539017454E0,-1.255261545E0,-3.374987147E0,8.354819206E0
9.581479250E0,8.033020638E0,-8.493124589E-1,-3.170696542E0,8.677791700E0
9.591415250E0,8.483744486E0,-5.970776090E-1,-3.277499444E0,9.114407539E0
9.601351250E0,8.907461214E0,-5.798271534E-1,-3.530921863E0,9.599295496E0
9.611287250E0,9.327912857E0,-6.040311179E-1,-3.456993177E0,9.966223642E0
9.621223250E0,9.859280334E0,-4.924481168E-1,-3.072394322E0,1.033864211E1
9.631159250E0,9.964251888E0,-5.311927910E-1,-2.754787016E0,1.035168262E1
9.641094250E0,9.599711321E0,-1.096130741E0,-2.304466626E0,9.933102561E0
9.651030250E0,8.971855431E0,-2.406050888E0,-1.624946492E0,9.429937531E0
9.660966250E0,8.077620860E0,-3.417530611E0,-5.954558837E-1,8.791020529E0
9.670902250E0,7.948065273E0,-3.575453965E0,8.317284197E-1,8.754849216E0
9.680838250E0,8.032148234E0,-3.605637000E0,2.213042486E0,9.078192577E0
9.690774250E0,7.797604719E0,-3.861423449E0,3.566023284E0,9.403709506E0
9.700710250E0,7.213546228E0,-4.353823326E0,5.226350108E0,9.914926233E0
9.710646250E0,6.899196407E0,-4.667956216E0,7.135911577E0,1.096858971E1
9.720581250E0,6.714929591E0,-4.604752493E0,8.757675430E0,1.195788041E1
9.730517250E0,6.127526493E0,-4.722089154E0,9.849426606E0,1.252421300E1
9.740453250E0,5.305913172E0,-4.799604523E0,1.087755189E1,1.301960265E1
9.750389250E0,4.490540584E0,-4.988622200E0,1.167091497E1,1.346334143E1
9.760325250E0,3.700025679E0,-5.423869638E0,1.207295666E1,1.374281028E1
9.770261250E0,2.823361699E0,-5.766793633E0,1.227266948E1,1.385083738E1
9.780197250E0,2.750551293E0,-5.695333641E0,1.231742640E1,1.384634793E1
9.790133250E0,2.721441222E0,-6.074144922E0,1.204089287E1,1.375807326E1
9.800069250E0,2.133217175E0,-7.130518690E0,1.162106746E1,1.380014932E1
9.810004250E0,1.440279728E0,-8.273977963E0,1.132155904E1,1.409648240E1
9.819940250E0,8.407407331E-1,-9.333175936E0,1.100096205E1,1.445116549E1
9.829876250E0,7.401323712E-1,-1.084906893E1,1.019094376E1,1.490320192E1
9.839812250E0,5.649152917E-1,-1.237743872E1,8.989871287E0,1.530809930E1
9.849748250E0,5.540763080E-2,-1.368273489E1,8.296489744E0,1.600162636E1
9.859684250E0,-8.122764874E-1,-1.483859494E1,8.398855779E0,1.706998744E1
9.869620250E0,-1.919056177E0,-1.549950455E1,8.784059821E0,1.791862508E1
9.879556250E0,-2.716077279E0,-1.584526094E1,9.017849044E0,1.843287746E1
9.889491250E0,-2.953427457E0,-1.592326163E1,9.036731458E0,1.854549838E1
9.899427250E0,-2.948157946E0,-1.581078225E1,8.858201346E0,1.836137799E1
9.909363250E0,-2.833663616E0,-1.582779297E1,8.539023478E0,1.820614187E1
9.919299250E0,-2.924941284E0,-1.594231536E1,8.025440893E0,1.808647014E1
9.929235250E0,-3.366122476E0,-1.585685012E1,7.604498668E0,1.790527510E1
9.939171250E0,-3.831593586E0,-1.577322792E1,6.870234563E0,1.762600214E1
9.949108083E0,-3.994160507E0,-1.567969235E1,5.465838613E0,1.707868444E1
9.959044083E0,-3.674953111E0,-1.540791844E1,3.904806281E0,1.631431099E1
9.968980083E0,-3.725142978E0,-1.492397832E1,2.494090660E0,1.558275673E1
9.978915083E0,-3.626366841E0,-1.447413331E1,1.541554672E0,1.500091538E1
9.988851083E0,-3.495135734E0,-1.387493520E1,9.783496910E-1,1.434179099E1
9.998787083E0,-3.540069540E0,-1.275183828E1,8.934048504E-1,1.326422421E1
1.000872308E1,-3.554896909E0,-1.189786997E1,1.251001264E0,1.248044895E1
1.001865908E1,-3.610374999E0,-1.140853170E1,1.643281606E0,1.207848407E1
1.002859508E1,-3.646337422E0,-1.113719633E1,1.715077229E0,1.184374977E1
1.003853108E1,-3.517940460E0,-1.117944831E1,1.373700991E0,1.180012814E1
1.004846708E1,-3.597839738E0,-1.134277859E1,9.841951525E-1,1.194033990E1
1.005840208E1,-3.764915155E0,-1.151475455E1,6.684203643E-1,1.213305173E1
1.006833808E1,-3.822438893E0,-1.163688301E1,2.360637903E-2,1.224861798E1
1.007827408E1,-4.188300930E0,-1.148274806E1,-9.905633551E-1,1.226281304E1
1.008821008E1,-4.346024895E0,-1.119353776E1,-2.039660847E0,1.217963203E1
1.009814608E1,-3.880811647E0,-1.122794161E1,-2.847723246E0,1.221625554E1
1.010808208E1,-2.912612722E0,-1.123366837E1,-3.518380170E0,1.212673151E1
1.011801808E1,-1.661183880E0,-1.102029178E1,-4.246149774E0,1.192627983E1
1.012795408E1,-8.340618972E-1,-1.072749362E1,-4.872748805E0,1.181179324E1
1.013788908E1,-9.653241411E-1,-1.049742908E1,-5.220604634E0,1.176361257E1
1.014782508E1,-1.775590648E0,-1.074569250E1,-5.118609313E0,1.203423411E1
1.015776108E1,-2.615432664E0,-1.094646133E1,-4.411793792E0,1.208840056E1
1.016769708E1,-3.002740535E0,-1.087510541E1,-3.440152611E0,1.179487255E1
1.017763308E1,-2.885050994E0,-1.095406855E1,-2.995636752E0,1.171703788E1
1.018756908E1,-2.058421931E0,-1.113674960E1,-3.514389738E0,1.185812919E1
1.019750508E1,-1.095106308E0,-1.096950988E1,-4.623426746E0,1.195430800E1
1.020744108E1,-2.538565752E-1,-1.048403895E1,-5.802171042E0,1.198518689E1
1.021737708E1,6.215379739E-1,-9.879565494E0,-6.975804287E0,1.211007718E1
1.022731208E1,1.573964034E0,-9.076487262E0,-7.878368801E0,1.212141406E1
1.023724808E1,1.988142200E0,-8.306906558E0,-8.264697847E0,1.188539593E1
1.024718408E1,1.715309948E0,-7.824356900E0,-8.116828195E0,1.140376030E1
1.025712008E1,1.294124479E0,-7.730897344E0,-7.731430026E0,1.100983843E1
1.026705608E1,9.282291126E-1,-7.553430256E0,-7.450719820E0,1.065031191E1
1.027699208E1,8.507318705E-1,-7.351902460E0,-7.502045510E0,1.053825893E1
1.028692808E1,8.879453051E-1,-7.117888704E0,-7.692693976E0,1.051809522E1
1.029686408E1,1.135535712E0,-6.685312859E0,-7.944798433E0,1.044522243E1
1.030679908E1,1.630641096E0,-6.283968163E0,-8.291657020E0,1.053085098E1
1.031673508E1,2.140693132E0,-5.963675231E0,-8.468537632E0,1.057658352E1
1.032667108E1,2.786508161E0,-5.388102804E0,-8.334077400E0,1.030791568E1
1.033660708E1,3.362793363E0,-4.623960012E0,-7.853189521E0,9.714009010E0
1.034654308E1,3.829102964E0,-3.907846248E0,-7.055609425E0,8.928321016E0
1.035647908E1,4.285482824E0,-3.312117007E0,-6.211096069E0,8.240946334E0
1.036641508E1,4.615258770E0,-3.032827967E0,-5.632758493E0,7.888385591E0
1.037635108E1,4.689255284E0,-2.726768913E0,-4.890194265E0,7.303313205E0
1.038628608E1,4.900110558E0,-2.335725549E0,-3.961387448E0,6.720066059E0
1.039622208E1,5.399169245E0,-2.129064190E0,-3.400418442E0,6.726573306E0
1.040615808E1,6.162510384E0,-1.743187279E0,-3.225860344E0,7.170872407E0
1.041609408E1,6.922287646E0,-1.213063652E0,-3.274050756E0,7.752999292E0
1.042603008E1,7.466476897E0,-7.756056744E-1,-3.464617946E0,8.267612650E0
1.043596608E1,7.645630907E0,-6.370056134E-1,-3.844376476E0,8.581414721E0
1.044590208E1,7.561354988E0,-8.528278050E-1,-4.233922661E0,8.707899036E0
1.045583808E1,7.539792795E0,-8.686826764E-1,-4.016788062E0,8.587064185E0
1.046577308E1,7.780233811E0,-7.869299769E-1,-3.176279463E0,8.440381992E0
1.047570908E1,7.927393611E0,-1.022006465E0,-2.023702626E0,8.245207032E0
1.048564508E1,7.959812329E0,-1.035098381E0,-6.691477579E-1,8.054675641E0
1.049558108E1,7.986413652E0,-9.424729300E-1,4.229975206E-1,8.052948848E0
1.050551708E1,8.144308355E0,-1.005729863E0,8.430106223E-1,8.249358645E0
1.051545308E1,8.150215797E0,-1.473472617E0,5.881977350E-1,8.303199122E0
1.052538908E1,7.790516140E0,-2.184308683E0,2.291664147E-1,8.094187013E0
1.053532508E1,7.623168243E0,-2.841770781E0,4.103564250E-1,8.145965113E0
1.054526008E1,7.791743470E0,-3.682978706E0,1.310883769E0,8.717454601E0
1.055519608E1,7.650803354E0,-4.440104256E0,2.305256000E0,9.141308604E0
1.056513208E1,7.462096163E0,-4.822019239E0,3.561450761E0,9.571764739E0
1.057506808E1,7.384354507E0,-4.840863061E0,5.210370253E0,1.025234631E1
1.058500408E1,6.653064880E0,-5.025823941E0,6.665470918E0,1.067476844E1
1.059494008E1,5.608463897E0,-5.358228795E0,8.278558087E0,1.134460255E1
1.060487608E1,4.702163305E0,-5.494822676E0,9.953895299E0,1.230379810E1
1.061481208E1,4.113947151E0,-5.719029483E0,1.110686565E1,1.315273067E1
1.062474708E1,3.400976851E0,-6.153738976E0,1.258555399E1,1.441635585E1
1.063468308E1,2.725303600E0,-6.964445486E0,1.385504298E1,1.574461802E1
1.064461908E1,2.464581517E0,-8.042118906E0,8.347917759E0,1.185063583E1
1.065455508E1,1.921976861E0,-8.652575821E0,9.101707472E0,1.270441428E1
1.066449108E1,8.246930498E-1,-9.388834997E0,9.177371027E0,1.315501730E1
1.067442708E1,-3.572356403E-1,-9.659680949E0,9.672711470E0,1.367473585E1
1.068436308E1,-1.603326997E0,-9.520059965E0,1.069341605E1,1.440664243E1
1.069429908E1,-2.855243350E0,-9.818434024E0,1.152263192E1,1.540535971E1
1.070423408E1,-3.507589719E0,-1.068796177E1,1.153457077E1,1.611154975E1
1.071417008E1,-2.714546478E0,-1.242748153E1,1.028911734E1,1.636083725E1
1.072410608E1,-1.673588895E0,-1.435663117E1,8.555126710E0,1.679595044E1
1.073404208E1,-2.034179667E0,-1.530702825E1,7.715398715E0,1.726181850E1
1.074397808E1,-3.015753513E0,-1.542026425E1,7.850540732E0,1.756446153E1
1.075391408E1,-4.253441252E0,-1.507437455E1,7.986420084E0,1.758156524E1
1.076385008E1,-5.631886089E0,-1.444021712E1,7.797409422E0,1.735043530E1
1.077378608E1,-6.343426160E0,-1.352736384E1,7.339142082E0,1.664606964E1
1.078372108E1,-6.124700534E0,-1.260145841E1,6.774610952E0,1.556290668E1
1.079365708E1,-5.639434844E0,-1.190313130E1,6.148272999E0,1.453578415E1
1.080359308E1,-5.215919260E0,-1.139621278E1,5.210791837E0,1.357320268E1
1.081352908E1,-4.940599603E0,-1.106213095E1,4.053030859E0,1.277526221E1
1.082346508E1,-4.816553847E0,-1.077050925E1,2.721250311E0,1.210818994E1
1.083340108E1,-4.700566723E0,-1.058191550E1,1.281383396E0,1.164964405E1
1.084333708E1,-4.161222182E0,-1.063880890E1,-1.467885017E-2,1.142367018E1
1.085327308E1,-3.540201395E0,-1.043928670E1,-9.619967830E-1,1.106513310E1
1.086320908E1,-3.072919694E0,-9.994637529E0,-1.315614166E0,1.053880712E1
1.087314408E1,-2.720135539E0,-9.661850851E0,-1.167997114E0,1.010518265E1
1.088308008E1,-2.544671414E0,-9.550168447E0,-7.349406284E-1,9.910661316E0
1.089301608E1,-2.848461750E0,-9.343684552E0,-2.263112193E-1,9.770843981E0
1.090295208E1,-3.447969461E0,-9.045432699E0,2.203651857E-1,9.682815032E0
1.091288808E1,-3.927287363E0,-8.891375524E0,6.470739341E-1,9.741604047E0
1.092282408E1,-4.340854202E0,-8.820423070E0,9.412537855E-1,9.875668941E0
1.093276008E1,-4.272352609E0,-8.686640530E0,1.124402028E0,9.745511810E0
1.094269608E1,-3.779680251E0,-8.529880772E0,1.216447728E0,9.408750919E0
1.095263108E1,-3.192128634E0,-8.667904297E0,7.761266613E-1,9.269553534E0
1.096256708E1,-2.489330442E0,-8.920282404E0,-9.575868130E-2,9.261607525E0
1.097250308E1,-1.949945848E0,-9.093902609E0,-1.055919439E0,9.360358932E0
1.098243908E1,-1.885295231E0,-9.237485082E0,-1.902031424E0,9.617857989E0
1.099237508E1,-2.164005396E0,-9.428184419E0,-2.353728248E0,9.955582226E0
1.100231108E1,-2.823005896E0,-9.588288200E0,-2.305567657E0,1.025769346E1
1.101224708E1,-3.857030143E0,-9.680487097E0,-1.930541863E0,1.059790092E1
1.102218308E1,-4.695847727E0,-9.993773310E0,-1.507418627E0,1.114445161E1
1.103211808E1,-5.396207045E0,-1.046745391E1,-1.366354842E0,1.185552898E1
1.104205408E1,-5.600532149E0,-1.071194003E1,-1.852731210E0,1.222882793E1
1.105199008E1,-4.825173812E0,-1.091006475E1,-2.907464833E0,1.227864678E1
1.106192608E1,-3.477829438E0,-1.095452230E1,-4.194048159E0,1.223465963E1
1.107186208E1,-2.359922204E0,-1.064441638E1,-5.270483138E0,1.210994738E1
1.108179808E1,-1.730175616E0,-1.025534032E1,-5.916086497E0,1.196518249E1
1.109173408E1,-1.594479868E0,-9.832597150E0,-5.987389784E0,1.162201227E1
1.110167008E1,-1.645681888E0,-9.627364558E0,-5.619910991E0,1.126844340E1
1.111160508E1,-1.196802253E0,-9.536999348E0,-5.531930276E0,1.109003809E1
1.112154108E1,-3.221611172E-1,-9.342115159E0,-5.984312979E0,1.109913984E1
1.113147708E1,6.356753719E-1,-8.574109696E0,-6.784550049E0,1.095214863E1
1.114141308E1,9.892108941E-1,-7.784832062E0,-7.955672500E0,1.117474265E1
1.115134908E1,5.000380951E-1,-7.353299360E0,-9.173992506E0,1.176788800E1
1.116128508E1,-2.446323001E-1,-7.088319334E0,-9.981200627E0,1.224452865E1
1.117122108E1,-5.039305866E-1,-6.968956028E0,-1.020696864E1,1.236941805E1
1.118115608E1,-1.513440675E-1,-6.687699108E0,-9.884218708E0,1.193507452E1
1.119109208E1,4.858428097E-1,-6.337586546E0,-9.379487638E0,1.133030603E1
1.120102808E1,1.350134958E0,-5.969003214E0,-9.096421005E0,1.096342733E1
1.121096408E1,2.218794976E0,-5.590056278E0,-9.277067224E0,1.105602807E1
1.122090008E1,3.054938044E0,-5.147571741E0,-9.806016877E0,1.148860776E1
1.123083608E1,3.788194674E0,-4.751115610E0,-1.020156698E1,1.187415207E1
1.124077208E1,4.583499618E0,-4.489945922E0,-9.847970649E0,1.175374872E1
1.125070808E1,5.656860716E0,-4.062432304E0,-8.259391499E0,1.080374830E1
1.126064308E1,7.217798908E0,-3.064184831E0,-5.684065472E0,9.684753484E0
1.127057908E1,8.875848243E0,-1.654991241E0,-3.136154115E0,9.557988317E0
1.128051508E1,1.026347964E1,-4.315265617E-1,-1.087532410E0,1.032995432E1
1.129045108E1,1.090175702E1,1.536681164E-1,-4.064165711E-2,1.090291575E1
1.130038708E1,1.090861230E1,9.013307512E-2,1.978346944E-2,1.090900260E1
1.131032308E1,1.094093220E1,-1.956960753E-2,-3.580548352E-1,1.094680701E1
1.132025908E1,1.089723128E1,-3.587095772E-1,-1.032537593E0,1.095191563E1
1.133019508E1,1.122218912E1,-5.402543673E-1,-1.162072130E0,1.129512351E1
1.134013008E1,1.168414488E1,-5.636552167E-1,-1.176392546E0,1.175673629E1
1.135006608E1,1.157492708E1,-1.118069201E0,-1.221027852E0,1.169272957E1
1.136000208E1,1.117761229E1,-2.012254363E0,-6.844353032E-1,1.137790120E1
1.136993808E1,1.069672558E1,-2.724894588E0,6.453221083E-1,1.105718903E1
1.137987408E1,1.017364536E1,-3.138902014E0,2.262438594E0,1.088459435E1
1.138981008E1,9.657462516E0,-3.595081022E0,3.832302561E0,1.099444099E1
1.139974608E1,9.151415237E0,-4.049463472E0,5.456152115E0,1.139807664E1
1.140968208E1,8.581030460E0,-4.145505159E0,7.156809525E0,1.191802078E1
1.141961708E1,7.971623704E0,-4.279024574E0,8.845882432E0,1.265331861E1
1.142955308E1,7.476081533E0,-4.796762191E0,1.043141401E1,1.370091679E1
1.143948908E1,6.654353607E0,-5.261992981E0,1.157507209E1,1.435100296E1
1.144942508E1,5.494185330E0,-5.595981846E0,1.255646526E1,1.480425294E1
1.145936108E1,4.536446781E0,-6.160127059E0,1.333560207E1,1.537416005E1
1.146929708E1,3.431909791E0,-7.090645357E0,1.350535726E1,1.563489466E1
1.147923308E1,2.361749459E0,-7.924297510E0,1.323241742E1,1.560350032E1
1.148916908E1,1.259094980E0,-9.104411225E0,1.253264604E1,1.554164858E1
1.149910408E1,-6.594723701E-2,-1.035652989E1,1.188038446E1,1.576088815E1
1.150904008E1,-8.670380008E-1,-1.135236451E1,1.174528571E1,1.635786267E1
1.151897608E1,-1.373239646E0,-1.208310976E1,1.180013493E1,1.694492588E1
1.152891208E1,-2.253929726E0,-1.241593912E1,1.216933280E1,1.753078448E1
1.153884808E1,-2.923930008E0,-1.263880692E1,1.239269176E1,1.794066934E1
1.154878408E1,-3.557583413E0,-1.295971966E1,1.191866969E1,1.796289009E1
1.155872008E1,-4.429464662E0,-1.322866702E1,1.087053757E1,1.768576759E1
1.156865608E1,-5.196332842E0,-1.345533199E1,9.677985658E0,1.736983709E1
1.157859108E1,-5.336644968E0,-1.387976033E1,8.395990058E0,1.707689009E1
1.158852708E1,-5.175947109E0,-1.392377817E1,7.100250578E0,1.646437321E1
1.159846308E1,-4.888962842E0,-1.363325341E1,6.171964747E0,1.574359251E1
1.160839908E1,-4.290296836E0,-1.368529948E1,5.556773341E0,1.538089070E1
1.161833508E1,-3.821315058E0,-1.361218238E1,4.950159801E0,1.497992123E1
1.162827108E1,-3.285927621E0,-1.326657452E1,4.541092102E0,1.440211225E1
1.163820708E1,-2.718810267E0,-1.299774527E1,4.433351306E0,1.399956839E1
1.164814308E1,-2.338403866E0,-1.292732491E1,4.301120617E0,1.382329558E1
1.165807808E1,-2.456266484E0,-1.290765722E1,4.020897485E0,1.374075968E1
1.166801408E1,-2.782844880E0,-1.289630192E1,3.640993359E0,1.368633120E1
1.167795008E1,-3.132898970E0,-1.285997317E1,3.103392166E0,1.359503619E1
1.168788608E1,-3.689793344E0,-1.251936701E1,2.295319827E0,1.325207978E1
1.169782208E1,-3.951286090E0,-1.209870546E1,1.358160846E0,1.279984126E1
1.170775808E1,-3.966753145E0,-1.183276006E1,6.058434623E-1,1.249465435E1
1.171769408E1,-3.912873392E0,-1.169864481E1,8.011679471E-2,1.233593479E1
1.172763008E1,-3.678208548E0,-1.154498583E1,-3.762443537E-1,1.212260185E1
1.173756508E1,-3.483257993E0,-1.147229090E1,-7.799022084E-1,1.201477392E1
1.174750108E1,-3.534432824E0,-1.144681225E1,-1.444314891E0,1.206680453E1
1.175743708E1,-3.777124726E0,-1.130540435E1,-2.319465319E0,1.214325978E1
1.176737308E1,-4.003837649E0,-1.107003521E1,-3.128938066E0,1.218058492E1
1.177730908E1,-4.133220159E0,-1.085205335E1,-3.571941251E0,1.214945822E1
1.178724508E1,-4.503776341E0,-1.085032959E1,-3.657014730E0,1.230395913E1
1.179718108E1,-4.946237488E0,-1.084550213E1,-3.584353720E0,1.244740026E1
1.180711708E1,-5.163566215E0,-1.079417293E1,-3.433462227E0,1.244850386E1
1.181705208E1,-5.090119339E0,-1.081527436E1,-3.187958107E0,1.237103679E1
1.182698808E1,-4.717786480E0,-1.087832138E1,-3.280824171E0,1.230281239E1
1.183692408E1,-3.991468449E0,-1.064415911E1,-3.872344878E0,1.200937127E1
1.184686008E1,-2.997271049E0,-1.039076885E1,-4.850141423E0,1.185223957E1
1.185679608E1,-2.231882799E0,-1.007321358E1,-5.827412302E0,1.184945850E1
1.186673208E1,-1.989049395E0,-9.742479862E0,-6.517128811E0,1.188886871E1
1.187666808E1,-2.121538239E0,-9.672714978E0,-6.641970958E0,1.192384660E1
1.188660408E1,-2.300826442E0,-9.700741267E0,-6.315045530E0,1.180160936E1
1.189653908E1,-2.140426499E0,-9.620663064E0,-5.905093732E0,1.148950457E1
1.190647508E1,-1.413525792E0,-9.403967591E0,-5.869207031E0,1.117498335E1
1.191641108E1,-2.837452027E-1,-8.921241347E0,-6.663008071E0,1.113843504E1
1.192634708E1,7.801893067E-1,-8.160535548E0,-7.976737679E0,1.143815456E1
1.193628308E1,1.532379221E0,-7.325998126E0,-9.248581928E0,1.189767634E1
1.194621908E1,1.639665688E0,-6.817200902E0,-9.753821706E0,1.201248391E1
1.195615508E1,1.298272494E0,-6.421831475E0,-9.282365971E0,1.136167897E1
1.196609008E1,1.159466026E0,-6.180464260E0,-8.349359098E0,1.045247805E1
1.197602608E1,1.605858842E0,-5.935890432E0,-7.562876433E0,9.747342088E0
1.198596208E1,2.064232017E0,-5.595475477E0,-7.014604071E0,9.207337830E0
1.199589808E1,2.883484232E0,-5.200804208E0,-7.185923982E0,9.327397772E0
1.200583408E1,3.846825290E0,-4.569313981E0,-7.702464089E0,9.747032785E0
1.201577008E1,4.807922187E0,-3.863899160E0,-8.225654819E0,1.028140213E1
1.202570608E1,5.700331256E0,-3.319692367E0,-8.192070166E0,1.051780146E1
1.203564208E1,6.557386891E0,-2.869687142E0,-7.269868948E0,1.020222631E1
1.204557708E1,7.644536308E0,-2.383204209E0,-5.739762540E0,9.852079561E0
1.205551308E1,8.682586656E0,-1.821883347E0,-4.131362498E0,9.786456256E0
1.206544908E1,9.340247558E0,-1.169357176E0,-2.718710280E0,9.797908259E0
1.207538508E1,9.607219731E0,-7.286493167E-1,-1.769624734E0,9.795977362E0
1.208532108E1,9.506134236E0,-6.264758013E-1,-1.332650614E0,9.619512342E0
1.209525708E1,9.259683452E0,-7.037543575E-1,-1.452505671E0,9.399296811E0
1.210519308E1,8.970539807E0,-9.178782253E-1,-1.815980290E0,9.198416673E0
1.211512908E1,9.017528032E0,-1.063606919E0,-1.838662809E0,9.264326873E0
1.212506408E1,1.026788610E1,-8.512021329E-1,-1.564172287E0,1.042116428E1
1.213500008E1,1.134417139E1,-6.629456162E-1,-1.294439059E0,1.143701421E1
1.214493608E1,1.157120942E1,-1.205504956E0,-8.365453559E-1,1.166387319E1
1.215487208E1,1.085118796E1,-2.171269977E0,6.130688667E-2,1.106645617E1
1.216480808E1,9.655875582E0,-3.186420874E0,1.211829012E0,1.024000687E1
1.217474408E1,8.798439878E0,-3.929703725E0,2.561899651E0,9.970879875E0
1.218468008E1,8.041332455E0,-4.492713994E0,3.939262753E0,1.001824824E1
1.219461608E1,6.524571147E0,-4.897815526E0,5.641215906E0,9.918767185E0
1.220455108E1,4.756292734E0,-5.176831208E0,7.702410294E0,1.042828012E1
1.221448708E1,3.625326914E0,-5.058185356E0,9.629035107E0,1.146501424E1
1.222442308E1,3.425234025E0,-4.630604203E0,1.038602208E1,1.187620217E1
1.223435908E1,3.598208990E0,-3.981019474E0,9.670350364E0,1.105944393E1
1.224429508E1,3.431287647E0,-3.616840850E0,8.249566423E0,9.639015449E0
1.225423108E1,3.268292126E0,-3.499602422E0,7.011427864E0,8.490528324E0
1.226416708E1,2.808589586E0,-3.367037857E0,6.512159847E0,7.850690751E0
1.227410208E1,2.212405139E0,-3.228901480E0,6.481385366E0,7.571584876E0
1.228403808E1,1.650979466E0,-2.947945692E0,6.855648683E0,7.643038392E0
1.229397408E1,9.684772521E-1,-2.806608549E0,7.436419285E0,8.007204975E0
1.230391008E1,1.349274248E-1,-2.799194865E0,7.776129066E0,8.265705085E0
1.231384608E1,-7.078610033E-1,-3.137295492E0,7.805986703E0,8.442577723E0
1.232378208E1,-1.371678439E0,-3.616357285E0,7.804438945E0,8.710270317E0
1.233371808E1,-1.485925432E0,-4.444319221E0,7.716296847E0,9.027800660E0
1.234365408E1,-1.343863819E0,-5.407042521E0,7.501049144E0,9.343865209E0
1.235358908E1,-1.531781051E0,-6.147203543E0,7.489877454E0,9.809828177E0
1.236352508E1,-2.003005822E0,-6.870212928E0,7.997666618E0,1.073193968E1
1.237346108E1,-2.540527493E0,-7.630859086E0,8.951384913E0,1.203376841E1
1.238339708E1,-2.949833758E0,-8.315870925E0,1.021780821E1,1.350032714E1
1.239333308E1,-3.233366414E0,-8.951642776E0,1.119264665E1,1.469223964E1
1.240326908E1,-3.499314739E0,-9.726846161E0,1.125164739E1,1.527927711E1
1.241320508E1,-3.428331295E0,-1.085691590E1,1.024098189E1,1.531351653E1
1.242314108E1,-3.412135093E0,-1.190809558E1,8.731296301E0,1.515522819E1
1.243307608E1,-3.466587288E0,-1.228497319E1,7.824019516E0,1.497174255E1
1.244301208E1,-3.176474760E0,-1.261002342E1,7.469425063E0,1.499649937E1
1.245294808E1,-3.000964735E0,-1.276585171E1,7.340095763E0,1.502829881E1
1.246288408E1,-3.070565313E0,-1.264291517E1,7.239215505E0,1.488885209E1
1.247282008E1,-2.956059873E0,-1.266952000E1,7.128461639E0,1.483475623E1
1.248275608E1,-2.743303669E0,-1.259653857E1,6.807273499E0,1.457866494E1
1.249269208E1,-2.491898539E0,-1.245194862E1,6.325515554E0,1.418706205E1
1.250262808E1,-2.059484078E0,-1.272258816E1,5.544397125E0,1.403018402E1
1.251256308E1,-1.615261457E0,-1.315394896E1,4.341557622E0,1.394577231E1
1.252249908E1,-1.078252879E0,-1.364399591E1,2.995965366E0,1.401060535E1
1.253243508E1,-6.779314452E-1,-1.399884706E1,1.935462295E0,1.414826224E1
1.254237108E1,-7.819747540E-1,-1.417384136E1,1.409053257E0,1.426515666E1
1.255230708E1,-1.223882755E0,-1.403129911E1,1.210036840E0,1.413645758E1
1.256224308E1,-1.833220513E0,-1.352341697E1,1.222446386E0,1.370174731E1
1.257217908E1,-2.521915805E0,-1.312353291E1,1.229172438E0,1.342006111E1
1.258211508E1,-3.030726478E0,-1.285904814E1,1.029909854E0,1.325145790E1
1.259205008E1,-3.271913891E0,-1.266591812E1,5.489482999E-1,1.309321376E1
1.260198608E1,-3.304270921E0,-1.267851770E1,1.400992870E-3,1.310202348E1
1.261192208E1,-3.254319912E0,-1.289048394E1,-6.600962681E-1,1.331130728E1
1.262185808E1,-3.363555256E0,-1.309681347E1,-1.467217265E0,1.360120412E1
1.263179408E1,-3.421219912E0,-1.303646904E1,-2.217451286E0,1.365911274E1
1.264173008E1,-3.269234405E0,-1.284895351E1,-2.832366704E0,1.355749981E1
1.265166608E1,-3.332900643E0,-1.273211094E1,-3.029159424E0,1.350520946E1
1.266160108E1,-3.772378248E0,-1.279565146E1,-2.777821537E0,1.362629174E1
1.267153708E1,-4.101896040E0,-1.298973809E1,-2.468173462E0,1.384379742E1
1.268147308E1,-4.096509585E0,-1.304205313E1,-2.422711945E0,1.388330198E1
1.269140908E1,-3.772178273E0,-1.306618810E1,-2.753664351E0,1.387577989E1
1.270134508E1,-3.238224866E0,-1.304283900E1,-3.533385880E0,1.389555919E1
1.271128108E1,-2.724997499E0,-1.280329260E1,-4.551875537E0,1.385891351E1
1.272121708E1,-2.319991861E0,-1.265817173E1,-5.729925184E0,1.408700523E1
1.273115308E1,-1.939610017E0,-1.241600344E1,-6.883957393E0,1.432857627E1
1.274108808E1,-1.307626870E0,-1.216489828E1,-7.725253027E0,1.446976753E1
1.275102408E1,-9.120940134E-1,-1.184942579E1,-7.778561507E0,1.420376099E1
1.276096008E1,-8.299915043E-1,-1.167968580E1,-7.028951969E0,1.365687050E1
1.277089608E1,-4.341119081E-2,-1.150285079E1,-6.243813579E0,1.308826455E1
1.278083208E1,1.478579575E0,-1.086039148E1,-6.063636307E0,1.252605229E1
1.279076808E1,2.786768947E0,-9.633203588E0,-6.510689272E0,1.195632750E1
1.280070408E1,3.437328406E0,-8.323596851E0,-7.056168419E0,1.144058582E1
1.281063908E1,3.821115083E0,-7.323256951E0,-7.239935882E0,1.098397398E1
1.282057508E1,4.317022120E0,-6.514643744E0,-6.784649452E0,1.034933482E1
1.283051108E1,4.748387007E0,-5.805668262E0,-6.113564512E0,9.676189031E0
1.284044708E1,4.923450304E0,-5.412470491E0,-5.599958537E0,9.213833911E0
1.285038308E1,4.813149013E0,-5.251265679E0,-5.543670900E0,9.026321604E0
1.286031908E1,4.622873014E0,-4.910905688E0,-5.965286724E0,9.004032168E0
1.287025508E1,4.535895097E0,-4.296731405E0,-6.827406047E0,9.254713309E0
1.288019108E1,4.628899155E0,-3.611364640E0,-7.935179179E0,9.870953882E0
1.289012608E1,4.680924756E0,-3.347112885E0,-8.992800157E0,1.067636061E1
1.290006208E1,4.820535800E0,-3.647013068E0,-9.164897747E0,1.097878046E1
1.290999808E1,5.547400839E0,-4.074360624E0,-8.235833652E0,1.073326728E1
1.291993408E1,6.676898131E0,-4.035893839E0,-6.666750873E0,1.026230846E1
1.292987008E1,7.984896299E0,-3.347728305E0,-4.883493356E0,9.940541287E0
1.293980608E1,9.209341848E0,-2.394997019E0,-2.943726341E0,9.960598013E0
1.294974175E1,1.024813187E1,-1.409961622E0,-1.493401097E0,1.045191109E1
1.295967675E1,1.071900113E1,-1.142888074E0,-8.003160077E-1,1.080942570E1
1.296961275E1,1.063095142E1,-8.873836800E-1,2.788005048E-1,1.067156537E1
1.297954875E1,1.068802024E1,-5.155060270E-1,1.481690294E0,1.080254272E1
1.298948475E1,1.096616060E1,-4.067913777E-1,2.210012459E0,1.119403022E1
1.299942075E1,1.122544368E1,-3.602810164E-1,2.229375513E0,1.145034949E1
1.300935675E1,1.144653041E1,-4.257714397E-1,1.449178605E0,1.154575499E1
1.301929275E1,1.140367968E1,-4.082835871E-1,3.843193585E-1,1.141745624E1
1.302922875E1,1.103528053E1,-4.652319592E-1,-3.201602000E-1,1.104972216E1
1.303916375E1,1.027425957E1,-8.945187449E-1,-4.341592705E-1,1.032226078E1
1.304909975E1,9.132813490E0,-1.291941714E0,2.480739713E-2,9.223774230E0
1.305903575E1,8.031482236E0,-1.516026021E0,8.286492759E-1,8.215211587E0
1.306897175E1,7.301328723E0,-1.490457024E0,1.664799360E0,7.635602148E0
1.307890775E1,7.008989575E0,-1.330765471E0,2.420410480E0,7.533608597E0
1.308884375E1,7.433433697E0,-1.013132438E0,3.048679184E0,8.097951508E0
1.309877975E1,8.280516905E0,-8.580552158E-1,3.368900195E0,8.980685246E0
1.310871475E1,8.955068074E0,-1.004075686E0,3.691135572E0,9.737858800E0
1.311865075E1,9.055715613E0,-1.296145277E0,4.125544519E0,1.003524267E1
1.312858675E1,8.406944817E0,-1.678571892E0,4.841691027E0,9.845623228E0
1.313852275E1,7.195940262E0,-2.167619268E0,5.934561360E0,9.575967214E0
1.314845875E1,5.693103513E0,-2.308081959E0,7.395464802E0,9.614133844E0
1.315839475E1,4.349057261E0,-2.320083370E0,8.853925862E0,1.013356251E1
1.316833075E1,3.566219750E0,-2.400114503E0,9.692387350E0,1.060286968E1
1.317826675E1,3.381379908E0,-2.891780554E0,9.937712545E0,1.088826228E1
1.318820175E1,3.470818918E0,-3.663370946E0,9.833122230E0,1.105247318E1
1.319813775E1,3.412863656E0,-4.495532936E0,9.972711639E0,1.145916368E1
1.320807375E1,3.226707020E0,-5.617427679E0,1.082058948E1,1.261159342E1
1.321800975E1,2.737990889E0,-7.155673996E0,1.171652793E1,1.399918895E1
1.322794575E1,1.847013803E0,-8.624515618E0,1.275110153E1,1.550433229E1
1.323788175E1,5.342121470E-1,-9.833613396E0,1.422522903E1,1.730151658E1
1.324781775E1,-9.413935339E-1,-1.099354545E1,1.559462238E1,1.910331150E1
1.325775275E1,-2.266763780E0,-1.187644577E1,1.628786827E1,2.028503968E1
1.326768875E1,-3.113504925E0,-1.202280392E1,1.647146616E1,2.062888568E1
1.327762475E1,-3.296001204E0,-1.152259333E1,1.602607088E1,2.001171479E1
1.328756075E1,-2.920992951E0,-1.092295903E1,1.500448044E1,1.878769989E1
1.329749675E1,-2.613124768E0,-1.075444578E1,1.357133373E1,1.751192806E1
1.330743275E1,-2.717724440E0,-1.109318317E1,1.186481683E1,1.646871632E1
1.331736875E1,-3.136717787E0,-1.130283392E1,1.024322489E1,1.557294799E1
1.332730475E1,-3.807649530E0,-1.123247320E1,9.062122407E0,1.492610839E1
1.333723975E1,-4.527495571E0,-1.099244734E1,8.471796870E0,1.459806346E1
1.334717575E1,-5.115585718E0,-1.056014047E1,8.281273534E0,1.436193842E1
1.335711175E1,-5.608033542E0,-9.990604119E0,7.993696944E0,1.397001796E1
1.336704775E1,-5.769893242E0,-9.404563422E0,7.591183974E0,1.339266797E1
1.337698375E1,-5.143655276E0,-8.738097197E0,7.375643325E0,1.253840686E1
1.338691975E1,-4.138544633E0,-8.209835177E0,6.845293264E0,1.146241620E1
1.339685575E1,-3.219124936E0,-7.997266084E0,5.526618081E0,1.024024109E1
1.340679175E1,-2.437905934E0,-7.812982897E0,4.027672654E0,9.121854751E0
1.341672675E1,-2.007604072E0,-7.423625577E0,2.681905273E0,8.144526181E0
1.342666275E1,-1.767951261E0,-7.096758036E0,1.396429119E0,7.445780051E0
1.343659875E1,-1.504894969E0,-7.029991019E0,5.261143380E-1,7.208486588E0
1.344653475E1,-1.494749465E0,-6.879997659E0,3.939339352E-1,7.051512440E0
1.345647075E1,-1.768427224E0,-6.893945607E0,1.743525687E-1,7.119285055E0
1.346640675E1,-2.175842500E0,-6.985130596E0,-5.795383009E-1,7.339087455E0
1.347634275E1,-2.595501553E0,-6.662147945E0,-1.580342470E0,7.322453542E0
1.348627775E1,-2.617757809E0,-5.958797484E0,-2.541873522E0,6.987205765E0
1.349621375E1,-2.381432649E0,-5.379704449E0,-3.432002177E0,6.811099791E0
1.350614975E1,-1.958913723E0,-4.942706355E0,-3.684938401E0,6.468883992E0
1.351608575E1,-1.547105434E0,-4.422432216E0,-3.915480373E0,6.105933874E0
1.352602175E1,-1.347888458E0,-4.054833555E0,-4.600902101E0,6.279074661E0
1.353595775E1,-1.588938754E0,-3.696607981E0,-5.169737366E0,6.551016819E0
1.354589375E1,-2.312405098E0,-3.179531100E0,-5.552538203E0,6.803478217E0
1.355582875E1,-2.773833444E0,-2.583546043E0,-5.919320008E0,7.029026354E0
1.356576475E1,-2.344983153E0,-1.978827000E0,-5.580194364E0,6.368145053E0
1.357570075E1,-1.719520528E0,-1.431026509E0,-4.647509673E0,5.157900142E0
1.358563675E1,-8.941641113E-1,-1.396636110E0,-4.040528050E0,4.367606759E0
1.359557275E1,-3.800573230E-1,-1.578989131E0,-3.578450663E0,3.929753096E0
1.360550875E1,-1.886604130E-3,-1.447585239E0,-3.097040336E0,3.418649649E0
1.361544475E1,3.365850288E-1,-1.373177665E0,-3.373454884E0,3.657745786E0
1.362537975E1,8.691210714E-1,-1.820707179E0,-3.877962883E0,4.371377608E0
1.363531575E1,8.024940956E-1,-1.600936655E0,-4.014544193E0,4.395857143E0
1.364525175E1,-2.323876458E-1,-1.016637844E0,-4.094501651E0,4.225221922E0
1.365518775E1,-1.227095215E0,-9.364450353E-1,-4.200588854E0,4.475224988E0
1.366512375E1,-1.966906866E0,-3.768279058E-1,-4.046154533E0,4.514652633E0
1.367505975E1,-2.169914593E0,2.810242009E-1,-4.022715677E0,4.579273453E0
1.368499575E1,-2.425552522E0,2.567412990E-1,-4.292388386E0,4.936984827E0
1.369493175E1,-2.262071681E0,-1.140242136E-1,-4.643380369E0,5.166328586E0
1.370486675E1,-1.755289115E0,-4.952100492E-1,-4.945529975E0,5.271104211E0
1.371480275E1,-1.086105105E0,-1.358667215E0,-4.503605602E0,4.827842616E0
1.372473875E1,-3.205329600E-1,-1.887430342E0,-3.691721463E0,4.158598566E0
1.373467475E1,-1.340357244E-1,-1.313390470E0,-2.652546111E0,2.962931146E0
1.374461075E1,-5.493494189E-1,3.969762415E-1,5.080382556E-2,6.796734135E-1
1.375454675E1,-6.155989569E-1,1.045217280E0,6.292168298E-1,1.366512004E0
1.376448275E1,-2.053550908E-1,9.130450630E-1,1.282688495E0,1.587800924E0
1.377441775E1,-2.054182407E-1,8.378288198E-1,1.841646643E0,2.033670608E0
1.378435375E1,-7.856962144E-2,5.591546148E-1,1.440566826E0,1.547274975E0
1.379428975E1,-3.332781360E-1,1.864946043E-1,8.087892079E-1,8.944241367E-1
1.380422575E1,-5.401084793E-1,-8.631191969E-2,1.261729735E-1,5.613256952E-1
1.381416175E1,-9.703197098E-1,2.770065790E-1,-7.882257199E-1,1.280450221E0
1.382409775E1,-1.170791791E0,7.438447684E-1,-1.125042883E0,1.785995506E0
1.383403375E1,-1.098243340E0,9.799699545E-1,-6.378990680E-1,1.604180403E0
1.384396875E1,-8.702437368E-1,1.014597166E0,6.837207735E-2,1.338434276E0
1.385390475E1,-5.961020011E-1,1.020340886E0,1.322870561E0,1.773814996E0
1.386384075E1,-5.058104664E-1,7.165464574E-1,2.701082094E0,2.839916818E0
1.387377675E1,-3.801184264E-1,2.251897234E-1,2.913382800E0,2.946693023E0
1.388371275E1,-2.982572611E-1,-1.740277559E-1,1.934869972E0,1.965442663E0
1.389364875E1,-7.330823833E-1,-2.245149547E-1,5.640662760E-1,9.518337613E-1
1.390358475E1,-6.646258137E-1,-2.431044227E-1,-7.268322945E-1,1.014451781E0
1.391352075E1,-6.933835897E-1,-3.445226240E-1,-1.400171921E0,1.599986891E0
1.392345575E1,-8.317053232E-1,-1.712731326E-1,-1.012639518E0,1.321554775E0
1.393339175E1,-1.025204599E0,1.418113518E-1,8.950566888E-2,1.038829243E0
1.394332775E1,-1.529200821E0,5.710975528E-1,1.857547562E0,2.472870904E0
1.395326371E1,-1.677584589E0,1.009515935E0,3.368930601E0,3.896550509E0
1.396319971E1,-1.865501237E0,1.065088457E0,3.873511983E0,4.429289262E0
1.397313571E1,-1.983587072E0,8.667240053E-1,3.220543470E0,3.880428896E0
1.398307171E1,-2.133896621E0,7.054806018E-1,1.972040137E0,2.990010029E0
1.399300671E1,-2.073636094E0,7.416023612E-1,8.359781760E-1,2.355589145E0
1.400294271E1,-2.254171070E0,8.433561927E-1,1.126255596E-1,2.409402705E0
1.401287871E1,-2.356746143E0,1.198389187E0,3.944689554E-1,2.673199353E0
1.402281471E1,-2.258869600E0,1.395859600E0,5.139679170E-1,2.704640255E0
1.403275071E1,-2.044187031E0,1.268805451E0,-2.451503634E-1,2.418401660E0
1.404268671E1,-1.518513426E0,5.714121330E-1,-9.074147791E-1,1.858977255E0
1.405262271E1,-1.458892146E0,-1.109269434E-1,-1.080460203E0,1.818808767E0
1.406255771E1,-2.184737869E0,-1.302145690E-1,-7.728937358E-1,2.321077361E0
1.407249371E1,-2.664851284E0,2.827087837E-1,-9.711698949E-2,2.681564531E0
1.408242971E1,-2.673967971E0,5.329625970E-1,5.166535431E-1,2.775082831E0
1.409236571E1,-2.481912079E0,6.353105056E-1,9.852780569E-1,2.744864270E0
1.410230171E1,-1.834817680E0,7.068587905E-1,1.142236036E0,2.273963155E0
1.411223771E1,-1.253546264E0,5.161729020E-1,9.276122314E-1,1.642643343E0
1.412217371E1,-1.059105440E0,2.418320686E-1,5.505153537E-1,1.217889255E0
1.413210871E1,-9.150567976E-1,7.883917809E-2,-1.481742918E-1,9.303226212E-1
1.414204471E1,-7.162776317E-1,-3.029091597E-2,-7.388395518E-1,1.029492627E0
1.415198071E1,-1.401415478E0,-2.450597316E-1,-7.522249979E-1,1.609304838E0
1.416191671E1,-1.735972107E0,-1.388427204E-1,-7.076867563E-1,1.879813024E0
1.417185271E1,-1.791159298E0,-1.298187125E-1,-1.688032687E-2,1.795936935E0
1.418178871E1,-3.754163879E0,-5.677470982E-1,2.121683249E0,4.349439390E0
1.419172471E1,-2.339788194E0,-5.476940721E-1,2.027417947E0,3.144042163E0
1.420166071E1,-1.335040956E0,-8.602143002E-1,1.755432957E0,2.367244783E0
1.421159571E1,-2.914176852E0,-1.210032163E0,2.080231753E0,3.779413805E0
1.422153171E1,-1.757618500E0,-7.523846269E-1,7.827422011E-1,2.065911608E0
1.423146771E1,-6.903503466E-1,-4.521932530E-1,2.465595424E-1,8.613094375E-1
1.424140371E1,-1.547950941E0,-5.245946467E-1,4.579773188E-1,1.697378828E0
1.425133971E1,-6.126238936E-1,2.576604813E-1,-7.555994260E-1,1.006293919E0
1.426127571E1,3.237978990E-1,7.492154360E-1,-8.492343986E-1,1.177865830E0
1.427121171E1,-8.218426783E-1,6.580456495E-3,-2.482084572E-2,8.222437380E-1
1.428114671E1,-1.761039998E0,-4.884161693E-1,4.905486488E-1,1.892207760E0
1.429108271E1,-2.113818744E0,-4.532551074E-1,6.470996618E-1,2.256636402E0
1.430101871E1,-2.221254023E0,-6.031104738E-1,7.966223216E-1,2.435635195E0
1.431095471E1,-2.425919142E0,-8.149018872E-1,1.192263059E0,2.823232185E0
1.432089071E1,-2.067935205E0,-6.635835475E-1,1.430867465E0,2.600784658E0
1.433082671E1,-8.911199047E-1,-4.487755555E-1,9.261586136E-1,1.361346378E0
1.434076271E1,1.141470051E-1,-3.852332783E-1,1.526819104E-1,4.298208734E-1
1.435069771E1,6.013663955E-1,-3.674349385E-1,-4.387054807E-1,8.301279868E-1
1.436063371E1,6.767321813E-1,-4.383254117E-1,-5.449634224E-1,9.731807353E-1
1.437056971E1,1.056875458E-1,-4.827262437E-1,-1.052118748E-1,5.052366004E-1
1.438050571E1,-8.671465398E-1,-4.337043571E-1,7.486225283E-1,1.224940113E0
1.439044171E1,-1.641666313E0,-4.312380016E-1,1.056092516E0,1.999091269E0
1.440037771E1,-2.451613562E0,-3.839936686E-1,1.219011147E0,2.764751051E0
1.441031371E1,-3.207164749E0,-4.277998388E-2,8.702183014E-1,3.323404240E0
1.442024871E1,-3.890225664E0,7.788672513E-1,-2.351820302E-1,3.974393098E0
1.443018471E1,-4.283765497E0,1.348695958E0,-1.533840441E0,4.745765914E0
1.444012071E1,-3.243713939E0,4.785507470E-1,-2.200468926E0,3.948766191E0
1.445005671E1,-1.690434138E0,-5.766845673E-1,-1.631141910E0,2.418833726E0
1.445999271E1,-7.670352642E-1,-6.195031428E-1,-6.794394422E-1,1.197399347E0
1.446992871E1,-1.010284113E0,-6.639396429E-2,1.840925682E-1,1.029063760E0
1.447986471E1,-1.622614623E0,2.400317109E-1,6.197229981E-1,1.753439486E0
1.448979971E1,-1.929024510E0,5.351664126E-2,5.169663692E-1,1.997812258E0
1.449973571E1,-2.088929779E0,-2.168615341E-1,4.192745984E-1,2.141599340E0
1.450967171E1,-2.026616879E0,-3.078594124E-1,3.553364646E-1,2.080436827E0
1.451960771E1,-1.874711186E0,-3.043446511E-1,3.144042009E-1,1.925101997E0
1.452954371E1,-1.642305121E0,-2.336676013E-1,3.172313297E-1,1.688905674E0
1.453947971E1,-1.386980603E0,-6.604488552E-2,3.771372235E-1,1.438857048E0
1.454941571E1,-1.421114894E0,6.016492546E-2,2.977039683E-1,1.453208523E0
1.455935071E1,-1.649977838E0,5.271323383E-2,1.581940806E-1,1.658382018E0
1.456928671E1,-1.851081564E0,-1.155345494E-1,7.091444671E-2,1.856038806E0
1.457922271E1,-1.934159097E0,-2.595526403E-1,2.011301851E-1,1.961833921E0
1.458915871E1,-1.823600966E0,-2.538247079E-1,5.314627862E-1,1.916350740E0
1.459909471E1,-1.646188111E0,-1.583478624E-1,8.649037671E-1,1.866297905E0
1.460903071E1,-1.666215848E0,-1.201877636E-1,9.848652434E-1,1.939247250E0
1.461896671E1,-2.006940998E0,-2.196032935E-1,6.506810814E-1,2.121184491E0
1.462890171E1,-2.355190345E0,-1.293164366E-1,2.508549070E-1,2.372039731E0
1.463883771E1,-2.227084136E0,1.253134328E-1,-3.048545283E-1,2.251342596E0
1.464877371E1,-1.842997350E0,2.918514901E-1,-8.297011900E-1,2.042111797E0
1.465870971E1,-1.488776388E0,2.637111801E-1,-9.474255216E-1,1.784268432E0
1.466864571E1,-1.240275862E0,1.701656699E-1,-8.906052035E-1,1.536365256E0
1.467858171E1,-1.726653254E0,-2.917760611E-4,-1.183149589E0,2.093125532E0
1.468851771E1,-2.102454242E0,-3.413838387E-2,-4.168637913E-1,2.143654518E0
1.469845271E1,-1.605228073E0,1.045663422E-1,1.237525186E0,2.029571352E0
1.470838871E1,-1.371583714E0,1.733331066E-1,1.727701952E0,2.212744966E0
1.471832471E1,-1.501160937E0,-4.829917073E-2,1.024571346E0,1.818120846E0
1.472826071E1,-1.676619360E0,-2.096332061E-1,-5.197356105E-2,1.690473251E0
1.473819671E1,-1.826696921E0,-1.021596283E-1,-7.162780702E-1,1.964767799E0
1.474813271E1,-1.823753871E0,-2.954598069E-3,-9.205335921E-1,2.042906999E0