"Time (s)","Linear Acceleration x (m/s^2)","Linear Acceleration y (m/s^2)","Linear Acceleration z (m/s^2)","Absolute acceleration (m/s^2)"
1.083054167E-2,2.556607336E-1,7.627757138E-1,-1.469671926E0,1.675447633E0
2.076654168E-2,2.205309543E-1,6.285967326E-1,-1.491279142E0,1.633303779E0
3.070254167E-2,2.626233056E-1,4.727523556E-1,-1.424915584E0,1.524089962E0
4.063854169E-2,3.513477865E-1,2.886194417E-1,-1.269743929E0,1.348701633E0
5.057454167E-2,3.804724753E-1,2.832666081E-1,-1.098064415E0,1.196137423E0
6.051054169E-2,3.310102934E-1,4.115498418E-1,-1.127770025E0,1.245313742E0
7.044654168E-2,2.397355494E-1,5.747666806E-1,-1.398764496E0,1.531134216E0
8.038254167E-2,2.125150064E-1,7.139540944E-1,-1.747036940E0,1.899218562E0
9.031854168E-2,2.055576968E-1,7.028247964E-1,-1.895914067E0,2.032414035E0
1.002545417E-1,1.876748648E-1,6.967173797E-1,-1.952495234E0,2.081555813E0
1.101905417E-1,2.294763172E-1,8.380065751E-1,-1.829127170E0,2.024998914E0
1.201265417E-1,2.693866338E-1,8.767060795E-1,-1.499469337E0,1.757723244E0
1.300625417E-1,5.115129635E-1,7.358574718E-1,-1.069803067E0,1.395568104E0
1.399985417E-1,9.668327227E-1,6.637317744E-1,-4.474558389E-1,1.255198036E0
1.499345417E-1,1.316230170E0,3.790472165E-1,7.901167095E-2,1.371999088E0
1.598705417E-1,1.267677669E0,-8.791902691E-2,4.557875365E-1,1.349992113E0
1.698065417E-1,1.105166882E0,-2.214026280E-1,6.010499150E-1,1.277369939E0
1.797425417E-1,5.861026776E-1,-3.997606856E-1,6.294030637E-1,9.484055941E-1
1.896785417E-1,-2.452105898E-1,-5.643735471E-1,5.854454505E-1,8.493480497E-1
1.996145417E-1,-8.497189135E-1,-6.500866389E-1,4.423377711E-1,1.157712215E0
2.095505417E-1,-8.594986010E-1,-5.826724085E-1,2.815492809E-1,1.075878701E0
2.194865417E-1,-6.126943526E-1,-5.162810024E-1,3.881808597E-1,8.902947955E-1
2.294225417E-1,-3.008555993E-1,-4.922920693E-1,4.688636649E-1,7.434370917E-1
2.393585417E-1,-2.498793905E-1,-4.953164685E-1,9.448790592E-1,1.095707329E0
2.492945417E-1,-1.935845909E-2,-5.740918754E-1,1.365235392E0,1.481156274E0
2.592305417E-1,5.650130863E-1,-1.341231768E-1,1.577753615E0,1.681230289E0
2.691665417E-1,5.727600624E-1,2.527445444E-1,1.726697985E0,1.836687188E0
2.791025417E-1,2.738273200E-1,9.211754702E-2,1.245772684E0,1.278834087E0
2.890385417E-1,3.407046115E-1,6.741653998E-1,6.689998233E-1,1.009028930E0
2.989745417E-1,1.802609060E-1,1.158481063E0,9.153991520E-2,1.175989763E0
3.089105417E-1,1.200393174E-1,1.195655760E0,-6.364653307E-1,1.359812579E0
3.188465417E-1,3.394772809E-1,1.273557191E0,-1.140880651E0,1.743215822E0
3.287837917E-1,7.782556325E-1,1.410513014E0,-1.052274284E0,1.924190729E0
3.387187917E-1,1.287777473E0,1.475137173E0,-5.181375664E-1,2.025553513E0
3.486557917E-1,1.574360183E0,1.295231503E0,-1.443852961E-1,2.043791023E0
3.585917917E-1,1.551796070E0,1.163037506E0,-3.177534860E-1,1.965119478E0
3.685277917E-1,1.121260027E0,8.636536324E-1,-9.095443350E-1,1.682377051E0
3.784637917E-1,5.982257098E-1,4.872455567E-1,-1.162034124E0,1.394849647E0
3.883997917E-1,1.785922386E-1,8.621851042E-2,-1.274187228E0,1.289527786E0
3.983357917E-1,-3.437187780E-1,1.593646932E-1,-1.338982564E0,1.391550937E0
4.082717917E-1,-1.434879532E0,8.602058217E-1,-1.984118146E-1,1.684695989E0
4.182077917E-1,-1.651452798E0,2.020922860E0,1.447182366E0,2.984252394E0
4.281437917E-1,-6.076037666E-1,1.060658607E0,1.222641098E0,1.728881220E0
4.380797917E-1,1.456948239E0,-1.467886772E0,1.567178341E0,2.594886837E0
4.480157917E-1,1.637222868E0,-2.353895479E0,2.703375372E0,3.940756406E0
4.579517917E-1,1.128759812E0,-1.559371431E0,3.567483918E0,4.053724149E0
4.678877917E-1,8.909466809E-1,-7.455989331E-1,3.323305362E0,3.520520173E0
4.778237917E-1,1.288957295E-1,1.488920376E-1,2.601249073E0,2.608693100E0
4.877597917E-1,2.806724909E-1,7.511008707E-1,1.682034613E0,1.863375970E0
4.976957917E-1,1.191044865E0,6.123978987E-1,5.686855763E-1,1.454999086E0
5.076317917E-1,2.096509232E0,4.105692637E-1,-4.011260104E-1,2.173665144E0
5.175677917E-1,2.370870238E0,3.752374631E-1,-7.861493737E-1,2.525838411E0
5.275037917E-1,2.070237692E0,3.837135869E-1,-8.873892349E-1,2.284858830E0
5.374397917E-1,1.858811437E0,4.117989331E-1,-7.105185628E-1,2.032140484E0
5.473757917E-1,1.521620345E0,5.192397666E-1,-2.018394524E-1,1.620394265E0
5.573117917E-1,1.154075186E0,5.735826194E-1,1.563311577E-1,1.298201058E0
5.672477917E-1,1.400529771E0,5.030996972E-1,4.392393315E-1,1.551619842E0
5.771837917E-1,2.191498127E0,6.039384395E-1,3.368966854E-1,2.298021988E0
5.871197917E-1,2.817434377E0,1.008712235E0,1.736769229E-1,2.997599125E0
5.970557917E-1,2.956296101E0,1.461809468E0,1.086395127E-1,3.299753945E0
6.069917917E-1,3.056313894E0,1.433105779E0,1.070595950E0,3.541330608E0
6.169277917E-1,2.814397333E0,1.224189149E0,2.754172474E0,4.123704334E0
6.268637917E-1,2.450991418E0,1.104841923E0,3.642390844E0,4.527145421E0
6.367997917E-1,1.925545709E0,8.534686598E-1,4.298974105E0,4.787203086E0
6.467357917E-1,1.535050229E0,5.363257693E-1,4.371025835E0,4.663677882E0
6.566717917E-1,1.367954348E0,4.594065244E-1,4.299319675E0,4.535030664E0
6.666077917E-1,9.509827483E-1,5.518612365E-1,4.130967811E0,4.274788190E0
6.765437917E-1,2.301244810E-1,8.886728449E-1,4.257740124E0,4.355576617E0
6.864797917E-1,-2.156274793E-1,1.143676936E0,5.462839576E0,5.585437170E0
6.964157917E-1,-9.994346045E-2,9.713920891E-1,6.994048769E0,7.061891353E0
7.063517917E-1,-8.273378916E-2,5.421900880E-1,7.757965860E0,7.777329185E0
7.162877917E-1,9.656881303E-2,-6.555752009E-2,7.636016330E0,7.636908322E0
7.262237917E-1,1.599092151E-1,-5.539945932E-1,7.165645253E0,7.188807471E0
7.361597917E-1,-6.107592165E-2,-6.560798887E-1,6.796292428E0,6.828159478E0
7.460957917E-1,-3.399604802E-1,-1.004592799E0,6.897330560E0,6.978391554E0
7.560317917E-1,-4.650488683E-1,-1.556134558E0,7.507350104E0,7.681024072E0
7.659687917E-1,-6.748821954E-1,-2.045988996E0,8.051951584E0,8.335194134E0
7.759047917E-1,-8.973449235E-1,-2.593790365E0,8.229786462E0,8.675388266E0
7.858407917E-1,-1.112689617E0,-3.297921429E0,7.825760232E0,8.564863522E0
7.957767917E-1,-1.370677250E0,-3.956665821E0,6.940362559E0,8.105713602E0
8.057127917E-1,-1.500884656E0,-4.458922935E0,5.831910565E0,7.493052070E0
8.156487917E-1,-1.289960385E0,-4.947646667E0,4.824981439E0,7.030195674E0
8.255847917E-1,-9.646683028E-1,-5.560406216E0,4.170752267E0,7.017398143E0
8.355207917E-1,-1.088498662E0,-6.109281426E0,3.858278816E0,7.307151586E0
8.454567917E-1,-1.329828455E0,-6.316200939E0,3.840774007E0,7.510950872E0
8.553927917E-1,-1.256166840E0,-6.242178698E0,4.018573217E0,7.529387805E0
8.653287917E-1,-1.475652166E0,-6.803893223E0,4.788700635E0,8.449980241E0
8.752647917E-1,-2.248252810E0,-7.470366465E0,4.756542118E0,9.137051425E0
8.852007917E-1,-2.656939124E0,-7.954933412E0,4.166676757E0,9.364907170E0
8.951367917E-1,-2.436273392E0,-8.052625183E0,3.423569908E0,9.083007833E0
9.050727917E-1,-2.256917799E0,-8.077179980E0,3.069725068E0,8.930718133E0
9.150087917E-1,-2.245743916E0,-8.230852994E0,2.784835857E0,8.974721026E0
9.249447917E-1,-2.257514361E0,-8.326700553E0,2.197008251E0,8.902648956E0
9.348807917E-1,-2.161049044E0,-8.387592872E0,2.032973387E0,8.896899906E0
9.448167917E-1,-2.170436603E0,-8.603576154E0,2.008042029E0,9.097502431E0
9.547527917E-1,-2.325941256E0,-8.864449096E0,1.712864057E0,9.323216386E0
9.646887917E-1,-2.242667842E0,-9.209347696E0,1.341096917E0,9.572888016E0
9.746247917E-1,-2.066881683E0,-9.668809038E0,7.484272313E-1,9.915543930E0
9.845607917E-1,-1.888816132E0,-1.002377888E1,-3.191977483E-1,1.020517793E1
9.944967917E-1,-1.397761991E0,-1.026783699E1,-1.538474944E0,1.047612142E1
1.004432792E0,-8.434593961E-1,-1.029151353E1,-2.785744514E0,1.069518803E1
1.014368792E0,-5.162968630E-1,-1.020258206E1,-3.714401643E0,1.086995965E1
1.024304792E0,-2.943932748E-1,-1.004391435E1,-4.141900935E0,1.086840496E1
1.034240792E0,1.207039265E-1,-1.000964967E1,-4.185386678E0,1.085012063E1
1.044176792E0,5.723734152E-1,-1.026004849E1,-3.981790137E0,1.102047454E1
1.054112792E0,8.246997741E-1,-1.061104983E1,-3.728753634E0,1.127732734E1
1.064048792E0,1.073537830E0,-1.076493218E1,-3.747556525E0,1.144903612E1
1.073984792E0,1.235356015E0,-1.069163850E1,-4.061491780E0,1.150360612E1
1.083920792E0,1.296162819E0,-1.036352550E1,-4.539977038E0,1.138833132E1
1.093856792E0,1.375940913E0,-9.960865180E0,-5.310082821E0,1.137141276E1
1.103792792E0,7.482654827E-1,-1.032013682E1,-5.983835846E0,1.195288320E1
1.113728792E0,5.941883536E-1,-1.085111078E1,-6.465858670E0,1.264543369E1
1.123664792E0,1.501303609E0,-1.073419336E1,-6.960367053E0,1.288113074E1
1.133600792E0,2.461212351E0,-1.024944398E1,-7.266319104E0,1.280265838E1
1.143537792E0,3.150014648E0,-9.927990965E0,-7.402680266E0,1.277839082E1
1.153473792E0,3.766107402E0,-9.581893101E0,-7.558202169E0,1.277194818E1
1.163409792E0,4.139179641E0,-9.094282093E0,-7.569958581E0,1.253567102E1
1.173345792E0,4.226991079E0,-8.684530855E0,-7.535900888E0,1.225064619E1
1.183281792E0,4.138887865E0,-8.395343356E0,-7.688380485E0,1.211294255E1
1.193217792E0,4.059870347E0,-8.187760769E0,-7.752467723E0,1.198427008E1
1.203153792E0,4.068620705E0,-7.953617789E0,-7.711892139E0,1.180199096E1
1.213089792E0,4.072045419E0,-7.640517517E0,-7.713666185E0,1.159567626E1
1.223025792E0,4.394161805E0,-7.101831665E0,-7.880315339E0,1.148233603E1
1.232961792E0,5.076432177E0,-6.491913278E0,-8.254994393E0,1.166447745E1
1.242897792E0,5.732633030E0,-5.847472930E0,-8.293588355E0,1.165502591E1
1.252833792E0,6.353429577E0,-5.269254638E0,-7.931676112E0,1.144738388E1
1.262769792E0,7.050526441E0,-4.942974157E0,-7.354825484E0,1.132415006E1
1.272705792E0,7.673187665E0,-4.500789876E0,-6.213413320E0,1.085087202E1
1.282641792E0,8.544937352E0,-3.889651760E0,-5.007832058E0,1.064066385E1
1.292577792E0,9.592958372E0,-3.256479873E0,-3.895726140E0,1.085385616E1
1.302513792E0,1.036557670E1,-2.818571953E0,-3.381936563E0,1.126175045E1
1.312449792E0,1.070791247E1,-2.727882223E0,-3.655145375E0,1.163876362E1
1.322385792E0,1.108791015E1,-2.536631493E0,-3.553489777E0,1.191652384E1
1.332322042E0,1.212430457E1,-2.355167248E0,-2.704874598E0,1.264365139E1
1.342258042E0,1.330768629E1,-2.267031290E0,-6.422990978E-1,1.351467696E1
1.352194042E0,1.370303525E1,-2.067867523E0,2.669738095E0,1.411299942E1
1.362130042E0,1.366958333E1,-2.231494106E0,5.459161677E0,1.488756261E1
1.372066042E0,1.310991825E1,-3.002080969E0,6.974693901E0,1.515020798E1
1.382002042E0,1.190912001E1,-3.747950043E0,7.258741697E0,1.444173120E1
1.391938042E0,1.091904841E1,-4.036932597E0,6.788241981E0,1.347600357E1
1.401874042E0,9.930667820E0,-3.826999136E0,6.713094735E0,1.258291408E1
1.411810042E0,9.265137734E0,-3.391948750E0,7.146652327E0,1.218288689E1
1.421746042E0,9.245938402E0,-2.936265002E0,7.719767169E0,1.239773504E1
1.431682042E0,9.479175063E0,-2.671710653E0,8.706293607E0,1.314505025E1
1.441618042E0,9.931189392E0,-2.801554216E0,1.006452579E1,1.441429527E1
1.451554042E0,9.756930671E0,-2.915002771E0,1.163646318E1,1.546293027E1
1.461490042E0,9.679929857E0,-3.006274884E0,1.306371122E1,1.653479003E1
1.471426042E0,9.722334450E0,-2.960150585E0,1.391044067E1,1.722749657E1
1.481362042E0,9.482286952E0,-2.911781833E0,1.393506680E1,1.710492111E1
1.491298042E0,8.559587551E0,-2.880130270E0,1.336248990E1,1.612816871E1
1.501235042E0,7.379052837E0,-2.686732442E0,1.230757268E1,1.459949647E1
1.511171042E0,6.559254491E0,-2.788231335E0,1.082429077E1,1.296006652E1
1.521107042E0,5.900647509E0,-3.144019790E0,9.319037368E0,1.146939227E1
1.531043042E0,5.354740931E0,-3.646602885E0,8.353441039E0,1.057123173E1
1.540979042E0,4.680587956E0,-4.312077715E0,8.152151810E0,1.034212246E1
1.550915042E0,3.786629082E0,-5.370251255E0,8.562982444E0,1.079364752E1
1.560851042E0,2.446197286E0,-6.631862876E0,8.940710236E0,1.139744646E1
1.570787042E0,1.022471611E0,-7.651719028E0,8.950665706E0,1.181984217E1
1.580723042E0,-3.173482740E-1,-8.398793213E0,8.894316673E0,1.223720991E1
1.590659042E0,-1.494312970E0,-8.803663196E0,8.836896431E0,1.256296921E1
1.600595042E0,-2.213928924E0,-9.013810957E0,8.857040673E0,1.282955333E1
1.610531042E0,-2.513741105E0,-9.292982175E0,8.798102494E0,1.304166475E1
1.620467042E0,-2.455336484E0,-9.746439012E0,8.542479767E0,1.319074339E1
1.630403042E0,-1.984839692E0,-1.063301899E1,8.116398425E0,1.352318767E1
1.640339042E0,-1.525315492E0,-1.199730772E1,7.513663927E0,1.423787644E1
1.650275042E0,-1.444163448E0,-1.354542004E1,6.875108802E0,1.525880511E1
1.660211042E0,-1.984355250E0,-1.463779220E1,6.379877118E0,1.609053940E1
1.670147042E0,-2.588420282E0,-1.521174202E1,6.179497715E0,1.662176906E1
1.680083042E0,-2.768873836E0,-1.556656978E1,6.366544297E0,1.704457812E1
1.690019042E0,-2.966499784E0,-1.557970496E1,6.834599292E0,1.726959974E1
1.699955042E0,-3.306539640E0,-1.527237180E1,6.938601378E0,1.709744817E1
1.709891042E0,-3.369255121E0,-1.476466625E1,6.447972037E0,1.645975677E1
1.719827042E0,-3.208184211E0,-1.417697079E1,5.701532859E0,1.561366144E1
1.729763042E0,-3.036425759E0,-1.352214930E1,4.760445135E0,1.465367670E1
1.739699042E0,-2.837454658E0,-1.291689465E1,3.709094126E0,1.373516274E1
1.749635042E0,-2.706436974E0,-1.245835834E1,2.783341309E0,1.304923302E1
1.759571042E0,-2.569220072E0,-1.224311882E1,1.966967677E0,1.266348341E1
1.769507042E0,-2.400176775E0,-1.224620498E1,1.071638508E0,1.252512651E1
1.779443042E0,-2.175350603E0,-1.247795352E1,2.511519456E-1,1.266864443E1
1.789379042E0,-1.868905047E0,-1.256482912E1,-6.135471690E-1,1.271786841E1
1.799315042E0,-1.518746292E0,-1.235750088E1,-1.530708087E0,1.254422120E1
1.809251042E0,-1.491564194E0,-1.197616185E1,-2.254975793E0,1.227754585E1
1.819188042E0,-1.490471642E0,-1.175805603E1,-2.659785549E0,1.214692745E1
1.829124042E0,-1.314817922E0,-1.177125904E1,-2.996403907E0,1.221759886E1
1.839060042E0,-1.020585299E0,-1.188472894E1,-3.615175563E0,1.246426374E1
1.848996042E0,-7.012869787E-1,-1.197240794E1,-4.520129249E0,1.281647080E1
1.858932042E0,-3.705124743E-1,-1.209277404E1,-5.156650713E0,1.315155923E1
1.868868042E0,-7.870410740E-2,-1.234802839E1,-5.327342632E0,1.344844151E1
1.878804042E0,3.632626578E-1,-1.259218005E1,-5.510205531E0,1.374981175E1
1.888740042E0,1.076287922E0,-1.263160432E1,-5.758967720E0,1.392413489E1
1.898676042E0,1.889416495E0,-1.243078988E1,-6.037823188E0,1.394810886E1
1.908612042E0,2.408801126E0,-1.207170068E1,-6.436564704E0,1.389091953E1
1.918548042E0,2.761527686E0,-1.172190386E1,-6.862591082E0,1.386088820E1
1.928484042E0,2.938326730E0,-1.154468177E1,-7.150164750E0,1.389382227E1
1.938420042E0,3.210906967E0,-1.151972937E1,-7.853571344E0,1.430708465E1
1.948356042E0,3.757388326E0,-1.119139066E1,-8.767257847E0,1.470476121E1
1.958292042E0,4.021833917E0,-1.045980575E1,-8.935985686E0,1.433298729E1
1.968228042E0,3.912745338E0,-9.922109835E0,-8.504524321E0,1.364128929E1
1.978164042E0,3.736391560E0,-9.801428567E0,-7.973336939E0,1.317583871E1
1.988100042E0,3.484493802E0,-9.766134773E0,-7.343283665E0,1.270601828E1
1.998036042E0,3.277403550E0,-9.494977748E0,-6.968244422E0,1.222507287E1
2.007972042E0,3.130751288E0,-9.120952998E0,-6.973112814E0,1.190032309E1
2.017908042E0,2.931460929E0,-8.764796169E0,-7.269325742E0,1.175832521E1
2.027844042E0,2.927306482E0,-8.232324738E0,-7.448086819E0,1.148104051E1
2.037780042E0,3.538719710E0,-7.546562117E0,-7.456752393E0,1.118375130E1
2.047716042E0,4.675892642E0,-6.852162573E0,-7.407583156E0,1.112152832E1
2.057652042E0,5.997630597E0,-6.083970584E0,-7.442886305E0,1.133061461E1
2.067588042E0,6.872774009E0,-5.442961382E0,-7.371300598E0,1.145412256E1
2.077524042E0,7.083736287E0,-5.049692860E0,-7.031008435E0,1.118542790E1
2.087460042E0,6.959198779E0,-4.909264959E0,-6.164585561E0,1.051348873E1
2.097396042E0,6.841582621E0,-4.834639577E0,-5.108668461E0,9.812211068E0
2.107332042E0,6.785358135E0,-4.687856338E0,-3.967100177E0,9.151773920E0
2.117268042E0,7.431179595E0,-4.485850532E0,-2.915669646E0,9.156768789E0
2.127204042E0,8.452799267E0,-3.952993185E0,-2.253757818E0,9.599760146E0
2.137140042E0,9.322868464E0,-3.141520690E0,-1.781216254E0,9.997887776E0
2.147076042E0,1.011837280E1,-2.565065333E0,-1.371095472E0,1.052810197E1
2.157013042E0,1.053913142E1,-2.513182989E0,-1.046423560E0,1.088505315E1
2.166949042E0,1.044241379E1,-2.759489931E0,-3.846438789E-1,1.080771676E1
2.176885042E0,1.045129455E1,-3.069115203E0,6.518885314E-2,1.089280843E1
2.186821042E0,1.022767129E1,-3.366422730E0,6.401110697E-1,1.078646394E1
2.196757042E0,1.002133124E1,-3.611565492E0,1.567222779E0,1.076692492E1
2.206693042E0,9.982924386E0,-3.725164905E0,2.575156458E0,1.096207388E1
2.216629042E0,1.017788225E1,-3.507807820E0,3.480631716E0,1.131409740E1
2.226565042E0,1.092298242E1,-3.502943814E0,4.627222758E0,1.236904809E1
2.236501042E0,1.160241601E1,-3.395514090E0,5.845621117E0,1.342821133E1
2.246437042E0,1.141922391E1,-3.086704797E0,7.348022833E0,1.392551115E1
2.256373042E0,1.104826018E1,-2.688188107E0,9.005255311E0,1.450465551E1
2.266309042E0,1.115551800E1,-2.472867606E0,1.018357159E1,1.530574357E1
2.276245042E0,1.121583320E1,-2.572840084E0,1.088757285E1,1.584151706E1
2.286181042E0,1.105956636E1,-2.666889916E0,1.156551072E1,1.622304990E1
2.296117042E0,1.091205982E1,-2.636020126E0,1.191636004E1,1.637135572E1
2.306053042E0,1.047525644E1,-2.724912422E0,1.165914804E1,1.590886162E1
2.315989042E0,9.975779089E0,-2.780652174E0,1.094907971E1,1.507085072E1
2.325925042E0,8.845276076E0,-2.880700373E0,1.048380039E1,1.401596996E1
2.335860292E0,7.701904510E0,-3.123207795E0,1.059284628E1,1.346410607E1
2.345796292E0,6.933604932E0,-3.704291807E0,1.093101766E1,1.346416734E1
2.355732292E0,5.831764970E0,-4.621968450E0,1.142492612E1,1.363455213E1
2.365668292E0,4.565532879E0,-5.461606983E0,1.197864692E1,1.393417465E1
2.375604292E0,3.286433697E0,-6.204522044E0,1.233999783E1,1.419761553E1
2.385540292E0,1.884277523E0,-7.093602294E0,1.235427205E1,1.437002899E1
2.395476292E0,5.879767102E-1,-8.041370462E0,1.177037494E1,1.426713292E1
2.405412292E0,-7.192548877E-1,-8.982671610E0,1.054513066E1,1.387103088E1
2.415348292E0,-1.584300742E0,-1.000492512E1,9.151576036E0,1.365136914E1
2.425284292E0,-1.875910742E0,-1.104941325E1,8.195981369E0,1.388462045E1
2.435220292E0,-1.643075200E0,-1.168537748E1,8.027691486E0,1.427205568E1
2.445156292E0,-1.448291582E0,-1.172517012E1,8.665226857E0,1.465139308E1
2.455093292E0,-1.239969322E0,-1.155092075E1,9.498714704E0,1.500622788E1
2.465029292E0,-9.573745590E-1,-1.166872811E1,9.720094966E0,1.521696514E1
2.474965292E0,-9.129681721E-1,-1.211776036E1,9.129460697E0,1.519936445E1
2.484901292E0,-1.269068868E0,-1.285168884E1,8.141722131E0,1.526643642E1
2.494837292E0,-1.910168994E0,-1.327166042E1,7.726440012E0,1.547525739E1
2.504773292E0,-2.234058548E0,-1.342780915E1,7.880364456E0,1.572886582E1
2.514709292E0,-2.505457647E0,-1.351827376E1,7.920982139E0,1.586704136E1
2.524645292E0,-2.695496834E0,-1.377944316E1,7.523569695E0,1.592930814E1
2.534581292E0,-2.783740089E0,-1.472847198E1,6.325077597E0,1.626910270E1
2.544517292E0,-3.029345073E0,-1.508677299E1,5.058291190E0,1.619796162E1
2.554453292E0,-3.093944820E0,-1.426753247E1,4.175227141E0,1.518444925E1
2.564389292E0,-2.888222524E0,-1.314390227E1,3.471944507E0,1.389814358E1
2.574325292E0,-2.718429906E0,-1.215462004E1,2.838133228E0,1.277417902E1
2.584261292E0,-2.541070699E0,-1.161869115E1,2.357838841E0,1.212478570E1
2.594197292E0,-2.294924409E0,-1.137247426E1,2.060922493E0,1.178334631E1
2.604133292E0,-1.848766067E0,-1.122927594E1,1.866899014E0,1.153255766E1
2.614069292E0,-1.253281532E0,-1.112937510E1,1.563478222E0,1.130832299E1
2.624005292E0,-6.978483774E-1,-1.109706806E1,1.156007398E0,1.117892056E1
2.633941292E0,-3.565523566E-1,-1.094490246E1,7.452954626E-1,1.097604140E1
2.643877292E0,1.782494456E-2,-1.083586943E1,1.422598332E-1,1.083681788E1
2.653813292E0,5.549685931E-1,-1.092251932E1,-8.851503360E-1,1.097237028E1
2.663749292E0,9.985756485E-1,-1.112652399E1,-2.171679867E0,1.138037271E1
2.673685292E0,1.401238161E0,-1.135813221E1,-3.474607329E0,1.196008075E1
2.683621292E0,1.545244704E0,-1.173642016E1,-4.317838976E0,1.260059811E1
2.693557292E0,1.251915184E0,-1.195427689E1,-4.710018747E0,1.290954314E1
2.703493292E0,1.004619477E0,-1.186313634E1,-4.682058531E0,1.279315974E1
2.713429292E0,8.837635227E-1,-1.166480463E1,-4.586893927E0,1.256536116E1
2.723365292E0,9.859751181E-1,-1.146986782E1,-4.634883195E0,1.241016345E1
2.733301292E0,1.257134993E0,-1.124221934E1,-4.793334553E0,1.228592448E1
2.743237292E0,1.245214275E0,-1.102488535E1,-4.831551662E0,1.210134485E1
2.753174292E0,1.404342155E0,-1.087255486E1,-4.980130874E0,1.204102693E1
2.763110292E0,2.043521618E0,-1.069749858E1,-5.399658072E0,1.215601759E1
2.773046292E0,2.987521109E0,-1.024886862E1,-6.162295207E0,1.232633249E1
2.782982292E0,3.579351427E0,-9.569580034E0,-7.125914007E0,1.245661548E1
2.792918292E0,3.883055808E0,-9.028765211E0,-7.768992539E0,1.252812710E1
2.802854292E0,4.084494141E0,-8.567662556E0,-8.044422709E0,1.244189177E1
2.812790292E0,3.980959540E0,-8.276622659E0,-8.056341673E0,1.221700301E1
2.822726292E0,3.652430513E0,-8.193339597E0,-7.719035683E0,1.183446553E1
2.832662292E0,3.174943667E0,-8.285033879E0,-7.356177360E0,1.152542403E1
2.842598292E0,2.933649542E0,-8.309159490E0,-7.362533283E0,1.148282750E1
2.852534292E0,2.882000209E0,-8.135458594E0,-7.516631974E0,1.144514604E1
2.862470292E0,2.793246200E0,-7.876967223E0,-7.841996196E0,1.146061697E1
2.872406292E0,2.728793803E0,-7.507807941E0,-8.132091182E0,1.139931589E1
2.882342292E0,2.909747586E0,-7.159454221E0,-7.928238534E0,1.107164766E1
2.892278292E0,3.688922693E0,-6.730476753E0,-7.673157259E0,1.085287106E1
2.902214292E0,4.739383464E0,-6.093969907E0,-7.639696568E0,1.086108597E1
2.912150292E0,5.590404772E0,-5.323950663E0,-7.673331506E0,1.088471830E1
2.922086292E0,6.085301410E0,-4.698959908E0,-7.800267541E0,1.095241029E1
2.932022292E0,6.581519519E0,-4.323072819E0,-7.827996207E0,1.110328251E1
2.941958292E0,6.965845309E0,-4.030141056E0,-7.298057790E0,1.086400871E1
2.951894292E0,7.284586390E0,-3.932888703E0,-6.415860883E0,1.047358980E1
2.961830292E0,7.765082506E0,-3.797976481E0,-5.275235755E0,1.012666006E1
2.971766292E0,8.036364076E0,-3.426929718E0,-4.081595092E0,9.642946300E0
2.981702292E0,8.352609565E0,-3.090586179E0,-3.651128338E0,9.625411556E0
2.991638292E0,8.713891479E0,-2.967328919E0,-3.919946476E0,1.000514498E1
3.001574292E0,9.561475793E0,-3.134775342E0,-4.376510523E0,1.097280639E1
3.011510292E0,9.855670263E0,-3.418718473E0,-4.473184294E0,1.135038546E1
3.021446292E0,9.978945941E0,-3.914053652E0,-3.294615998E0,1.121399450E1
3.031382292E0,1.006638988E1,-4.507451608E0,-7.443534762E-1,1.105456410E1
3.041318292E0,1.011076908E1,-4.866024507E0,2.207021608E0,1.143576802E1
3.051254292E0,1.002497171E1,-4.776341960E0,4.613496419E0,1.202488460E1
3.061191292E0,9.272026924E0,-4.606658978E0,6.667111647E0,1.231430745E1
3.071127292E0,9.048643405E0,-4.721049812E0,8.355482302E0,1.319016085E1
3.081063292E0,8.581669561E0,-4.862492496E0,1.008110148E1,1.410381128E1
3.090999292E0,8.083774470E0,-4.824516877E0,1.246702274E1,1.562210065E1
3.100935292E0,8.463408455E0,-4.370808318E0,1.481501779E1,1.761300656E1
3.110871292E0,9.224903628E0,-3.639134529E0,1.584904409E1,1.869583765E1
3.120807292E0,9.353204988E0,-2.918192720E0,1.552663095E1,1.835959044E1
3.130743292E0,9.101639645E0,-2.183400611E0,1.462184684E1,1.736103359E1
3.140679292E0,8.806789702E0,-1.707429655E0,1.324943282E1,1.600069783E1
3.150615292E0,8.515728756E0,-1.411980958E0,1.157879326E1,1.444229136E1
3.160551292E0,8.457914411E0,-1.177659638E0,1.014809653E1,1.326299595E1
3.170487292E0,8.371292004E0,-1.197931350E0,9.331525267E0,1.259328921E1
3.180423292E0,7.665440104E0,-1.313453620E0,9.365395848E0,1.217352750E1
3.190359292E0,6.739819434E0,-1.320429933E0,1.002955125E1,1.215568178E1
3.200295292E0,6.124154989E0,-1.601851745E0,1.039722183E1,1.217265071E1
3.210231292E0,5.211286511E0,-2.145837220E0,9.923999655E0,1.141261993E1
3.220167292E0,4.236150742E0,-2.606481162E0,9.086538625E0,1.035875964E1
3.230103292E0,3.043481010E0,-3.059667857E0,8.257104653E0,9.316872936E0
3.240039292E0,1.776550469E0,-3.476390730E0,7.600406202E0,8.544448403E0
3.249975292E0,7.368933061E-1,-3.897126255E0,7.137684453E0,8.165607396E0
3.259911292E0,-1.922973812E-1,-4.550587980E0,6.865403593E0,8.238846748E0
3.269847292E0,-7.554930067E-1,-5.480700481E0,6.687524276E0,8.679391015E0
3.279783292E0,-8.638401586E-1,-6.865494810E0,6.491427959E0,9.487880467E0
3.289719292E0,-7.180778432E-1,-8.229974742E0,6.331176243E0,1.040826175E1
3.299655292E0,-4.570686615E-1,-9.335317186E0,6.525084532E0,1.139885024E1
3.309591292E0,-6.932143128E-1,-9.998834660E0,7.071532563E0,1.226636920E1
3.319528292E0,-1.230914032E0,-1.050760440E1,7.546478502E0,1.299516208E1
3.329464333E0,-1.938470103E0,-1.117960385E1,7.563351812E0,1.363618345E1
3.339400333E0,-2.642426920E0,-1.189916337E1,7.032866095E0,1.407244522E1
3.349336333E0,-2.996255388E0,-1.268097587E1,6.222282377E0,1.443958079E1
3.359272333E0,-3.113224259E0,-1.312681086E1,5.867987886E0,1.471185272E1
3.369208333E0,-3.087796472E0,-1.352635695E1,6.072681364E0,1.514510741E1
3.379144333E0,-3.119586322E0,-1.427339956E1,5.897059658E0,1.575554082E1
3.389080333E0,-3.142179379E0,-1.490378087E1,5.292155258E0,1.612460488E1
3.399016333E0,-3.533784075E0,-1.467757782E1,4.712357048E0,1.581534791E1
3.408952333E0,-3.977767838E0,-1.421029056E1,4.163959556E0,1.533276081E1
3.418888333E0,-4.111148674E0,-1.371332986E1,3.822937075E0,1.481795556E1
3.428824333E0,-3.979335769E0,-1.298294480E1,3.482953645E0,1.401866380E1
3.438760333E0,-3.788027444E0,-1.227764312E1,3.156977804E0,1.323087984E1
3.448696333E0,-3.450583459E0,-1.167455545E1,3.175840922E0,1.258124544E1
3.458632333E0,-2.914780285E0,-1.121807853E1,3.281381995E0,1.204610716E1
3.468568333E0,-2.544015065E0,-1.086248595E1,3.077996539E0,1.157323103E1
3.478504333E0,-1.880388979E0,-1.077615766E1,2.701073908E0,1.126753020E1
3.488440333E0,-9.625046137E-1,-1.109450230E1,1.894414256E0,1.129615872E1
3.498376333E0,-2.470678116E-1,-1.138514517E1,4.357134604E-1,1.139615809E1
3.508312333E0,5.137361114E-1,-1.118882257E1,-8.951069748E-1,1.123632020E1
3.518248333E0,1.179740589E0,-1.077367143E1,-1.429315614E0,1.093191323E1
3.528184333E0,1.570809169E0,-1.043663675E1,-1.571627487E0,1.067055954E1
3.538120333E0,1.699350850E0,-1.018307575E1,-1.530734400E0,1.043676065E1
3.548056333E0,1.599732421E0,-1.007359833E1,-1.402395033E0,1.029578744E1
3.557992333E0,1.291982644E0,-1.020697098E1,-1.497922164E0,1.039688639E1
3.567928333E0,1.111516446E0,-1.033296327E1,-1.877820443E0,1.056086211E1
3.577864333E0,1.573834811E0,-1.040834207E1,-2.327046819E0,1.078080180E1
3.587801333E0,2.594047350E0,-1.012974095E1,-3.160318903E0,1.092375160E1
3.597737333E0,3.482555157E0,-9.612302715E0,-4.457440081E0,1.115317560E1
3.607673333E0,3.670694583E0,-9.160150977E0,-5.541431417E0,1.131767762E1
3.617609333E0,3.609525399E0,-8.806361101E0,-6.440385275E0,1.149170274E1
3.627545333E0,3.163817585E0,-8.475246727E0,-7.427792888E0,1.170519782E1
3.637481333E0,2.084634853E0,-8.266091239E0,-7.914747838E0,1.163259215E1
3.647417333E0,8.682791454E-1,-8.371496072E0,-7.609624922E0,1.134646406E1
3.657353333E0,-2.255576594E-1,-8.454473909E0,-6.813304317E0,1.086048438E1
3.667289333E0,-7.242638319E-1,-8.244428474E0,-5.925886431E0,1.017896306E1
3.677225333E0,-6.033174652E-1,-8.004466345E0,-5.590223508E0,9.781925797E0
3.687161333E0,1.110523662E-1,-7.806893021E0,-5.818372507E0,9.737215716E0
3.697097333E0,1.396303257E0,-7.598559067E0,-6.345279728E0,9.997516566E0
3.707033333E0,2.673727650E0,-7.277294328E0,-7.010889920E0,1.045277043E1
3.716969333E0,3.495383948E0,-6.889821566E0,-7.477456214E0,1.075173017E1
3.726905333E0,3.717234035E0,-6.563742814E0,-7.511942507E0,1.064564835E1
3.736841333E0,3.194014945E0,-6.261373352E0,-7.060890630E0,9.963067009E0
3.746777333E0,2.618417083E0,-6.047070560E0,-6.166142675E0,9.024659875E0
3.756713333E0,2.600685986E0,-6.014017419E0,-5.603883773E0,8.621802970E0
3.766649333E0,2.744061468E0,-5.847602153E0,-5.345230435E0,8.384259817E0
3.776585333E0,3.149092249E0,-5.454462270E0,-5.461771874E0,8.336599586E0
3.786521333E0,3.835701547E0,-5.204261667E0,-6.249633313E0,8.991933185E0
3.796457333E0,4.789699632E0,-4.958080439E0,-7.382147183E0,1.010048916E1
3.806393333E0,5.539989493E0,-4.383497946E0,-8.454456952E0,1.101745797E1
3.816329333E0,5.981194074E0,-3.943058766E0,-9.283564065E0,1.172633603E1
3.826265333E0,6.040402980E0,-3.596954177E0,-9.317294313E0,1.167204013E1
3.836201333E0,6.022522194E0,-3.272645670E0,-8.503817393E0,1.092226595E1
3.846137333E0,5.965757425E0,-3.056485217E0,-7.345776917E0,9.944486013E0
3.856073333E0,6.166069000E0,-2.809532742E0,-6.240100012E0,9.211554120E0
3.866010333E0,6.702631143E0,-2.570063826E0,-5.261336339E0,8.900120919E0
3.875946333E0,7.473895844E0,-2.209773161E0,-4.597769163E0,9.048850634E0
3.885882333E0,8.248816810E0,-1.719764503E0,-4.352201309E0,9.483787478E0
3.895818333E0,9.152280040E0,-1.396226951E0,-4.767243108E0,1.041346659E1
3.905754333E0,1.031633730E1,-9.484180865E-1,-4.844193635E0,1.143645593E1
3.915690333E0,1.190576722E1,-7.604912066E-1,-4.225552956E0,1.265626081E1
3.925626333E0,1.291289632E1,-1.034121311E0,-2.832722799E0,1.326033999E1
3.935562333E0,1.282032437E1,-1.954312695E0,-4.973647481E-1,1.297795927E1
3.945498333E0,1.227105915E1,-3.321988569E0,2.477789208E0,1.295198595E1
3.955434333E0,1.174126633E1,-4.558346651E0,5.337169463E0,1.367922648E1
3.965370333E0,1.038682081E1,-4.644343990E0,7.828109059E0,1.381069401E1
3.975306333E0,9.006967961E0,-4.131769757E0,9.860287224E0,1.397935110E1
3.985242333E0,8.522640749E0,-3.614628848E0,1.142757140E1,1.470681254E1
3.995178333E0,7.859267117E0,-2.911627758E0,1.225879988E1,1.485004479E1
4.005114333E0,6.446247693E0,-2.769463527E0,1.245097681E1,1.429163605E1
4.015050333E0,5.519732984E0,-3.096801184E0,1.221324656E1,1.375576321E1
4.024986333E0,5.403693236E0,-3.024688058E0,1.133711497E1,1.291815832E1
4.034922333E0,5.542374573E0,-2.372970850E0,9.879422822E0,1.157375919E1
4.044858333E0,5.931222015E0,-1.229474739E0,8.343920603E0,1.031077173E1
4.054794333E0,6.655078661E0,-2.785762641E-1,7.754559272E0,1.022256652E1
4.064730333E0,6.819896468E0,7.163716257E-3,8.145811089E0,1.062380711E1
4.074666333E0,6.496728460E0,-3.093530837E-1,8.756791915E0,1.090800553E1
4.084602333E0,6.105180774E0,-8.202576444E-1,9.192367966E0,1.106551778E1
4.094538333E0,5.840332895E0,-1.718016624E0,9.126396756E0,1.097051444E1
4.104474333E0,5.564272395E0,-3.227133282E0,8.285385296E0,1.048919091E1
4.114410333E0,4.870382729E0,-4.760199259E0,7.448840525E0,1.009283657E1
4.124347333E0,3.838812851E0,-5.905342239E0,7.433150691E0,1.024017970E1
4.134283333E0,2.814354356E0,-7.157990663E0,8.048031610E0,1.113230585E1
4.144219333E0,1.854539169E0,-7.998708592E0,8.976302238E0,1.216522324E1
4.154155333E0,1.017251217E0,-8.372529860E0,9.663052454E0,1.282609212E1
4.164091333E0,3.973107022E-1,-8.912274642E0,9.566350617E0,1.308057947E1
4.174027333E0,-4.393480897E-1,-9.175541434E0,9.162595114E0,1.297446479E1
4.183963333E0,-1.058023267E0,-9.235918028E0,8.643681037E0,1.269388896E1
4.193899333E0,-1.168221062E0,-9.493965595E0,7.851097972E0,1.237496919E1
4.203835333E0,-1.288905255E0,-9.773444962E0,6.893670203E0,1.202930555E1
4.213771333E0,-1.162656852E0,-1.029682280E1,6.039363345E0,1.199375839E1
4.223707333E0,-1.046793689E0,-1.063894924E1,5.382025793E0,1.196867660E1
4.233643333E0,-1.192876432E0,-1.075319448E1,5.144083292E0,1.197980545E1
4.243579333E0,-1.006512513E0,-1.134179976E1,5.438323370E0,1.261843296E1
4.253515333E0,-6.925377899E-1,-1.198384626E1,6.046047882E0,1.344049384E1
4.263451333E0,-7.718327585E-1,-1.205590735E1,6.924990229E0,1.392465861E1
4.273387333E0,-1.222473868E0,-1.197665302E1,7.523215939E0,1.419624732E1
4.283323333E0,-1.276802980E0,-1.236209212E1,7.606955084E0,1.457111228E1
4.293259333E0,-1.273023340E0,-1.247546729E1,7.151028968E0,1.443589581E1
4.303195333E0,-1.124185681E0,-1.224013557E1,6.465396155E0,1.388834258E1
4.313131333E0,-7.904416685E-1,-1.213553473E1,5.715115356E0,1.343720747E1
4.323067333E0,-6.419323312E-1,-1.206281057E1,4.788039315E0,1.299418318E1
4.333003792E0,-4.862570849E-1,-1.203177589E1,3.606311769E0,1.257002631E1
4.342939792E0,-1.568807960E-2,-1.216552627E1,2.459373402E0,1.241163942E1
4.352875792E0,2.049899322E-1,-1.211340068E1,1.424122701E0,1.219855001E1
4.362811792E0,2.417676030E-1,-1.191329025E1,5.223908311E-1,1.192718862E1
4.372747792E0,2.033658315E-1,-1.168319646E1,-3.315418053E-1,1.168966883E1
4.382684792E0,2.085900446E-1,-1.136136805E1,-7.627125639E-1,1.138885088E1
4.392620792E0,1.555616641E-1,-1.128470755E1,-8.094996446E-1,1.131477413E1
4.402556792E0,-7.476279169E-2,-1.122692069E1,-7.005630934E-1,1.124900557E1
4.412492792E0,-1.001493555E-1,-1.125257944E1,-6.939516467E-1,1.127440210E1
4.422428792E0,4.105081603E-2,-1.137246490E1,-1.018306639E0,1.141803799E1
4.432364792E0,6.980101991E-1,-1.140381767E1,-1.828596243E0,1.157056783E1
4.442300792E0,1.497684621E0,-1.124050728E1,-2.952418227E0,1.171788532E1
4.452236792E0,2.006561514E0,-1.105315664E1,-3.842435201E0,1.187277849E1
4.462172792E0,2.078438266E0,-1.090149741E1,-4.381018142E0,1.193129797E1
4.472108792E0,1.849917968E0,-1.064355801E1,-4.650019882E0,1.176138634E1
4.482044792E0,1.671284945E0,-1.037261909E1,-4.905896963E0,1.159535446E1
4.491980792E0,1.466099570E0,-1.020587053E1,-5.313326272E0,1.159916710E1
4.501916792E0,1.214670686E0,-1.018206301E1,-5.823874737E0,1.179268201E1
4.511852792E0,8.142010984E-1,-1.004681223E1,-5.902011080E0,1.168054341E1
4.521788792E0,2.774557366E-1,-9.907561963E0,-5.791613309E0,1.147952745E1
4.531724792E0,6.606136736E-2,-1.002022494E1,-5.762036338E0,1.155899368E1
4.541660792E0,1.521763455E-1,-1.005420662E1,-5.666129723E0,1.154189129E1
4.551596792E0,8.768054091E-1,-9.834902122E0,-6.202877222E0,1.166060776E1
4.561532792E0,1.625227890E0,-9.294757390E0,-7.196945983E0,1.186717793E1
4.571468792E0,2.053034014E0,-8.755311985E0,-7.560741030E0,1.174884001E1
4.581404792E0,2.303267947E0,-8.397992730E0,-7.551641593E0,1.152643119E1
4.591340792E0,2.353363382E0,-8.061868461E0,-7.432191163E0,1.121470052E1
4.601276792E0,2.592997190E0,-7.728546764E0,-7.380169070E0,1.099640691E1
4.611212792E0,2.601774738E0,-7.510724532E0,-7.374604860E0,1.084274004E1
4.621148792E0,2.147230612E0,-7.328003721E0,-7.332846385E0,1.058682549E1
4.631084792E0,1.853248689E0,-7.006445451E0,-7.176086626E0,1.019906995E1
4.641020792E0,2.127709682E0,-6.673358812E0,-7.120529891E0,9.988133572E0
4.650957792E0,3.141602843E0,-6.100193684E0,-7.192623137E0,9.940616630E0
4.660893792E0,4.346168736E0,-5.380211402E0,-7.413052642E0,1.013850121E1
4.670829792E0,5.141592379E0,-4.819874480E0,-7.780830227E0,1.049802273E1
4.680765792E0,5.400868446E0,-4.605205652E0,-8.232966762E0,1.087009847E1
4.690701792E0,5.157403250E0,-4.622421609E0,-8.478473221E0,1.094760695E1
4.700637792E0,4.577998558E0,-4.450572526E0,-7.837471620E0,1.010898749E1
4.710573792E0,4.516906556E0,-3.843155285E0,-6.663675823E0,8.920586464E0
4.720509792E0,5.446407146E0,-3.262778494E0,-5.839659880E0,8.626163795E0
4.730445792E0,6.680511711E0,-2.885790082E0,-5.287645885E0,8.995344358E0
4.740381792E0,7.693087494E0,-2.504764752E0,-4.683313344E0,9.348308164E0
4.750317792E0,8.886567943E0,-2.252786011E0,-4.344282424E0,1.014489647E1
4.760253792E0,9.888132834E0,-2.115924619E0,-3.972438101E0,1.086427965E1
4.770189792E0,1.011196425E1,-1.994101243E0,-2.947366818E0,1.071985223E1
4.780125792E0,1.000011169E1,-1.959292330E0,-1.827847799E0,1.035287824E1
4.790061792E0,9.826947570E0,-1.860071512E0,-5.661952472E-1,1.001745185E1
4.799997792E0,9.903264259E0,-1.782147570E0,7.257394499E-1,1.008847812E1
4.809933792E0,1.013074901E1,-1.776762138E0,1.883892192E0,1.045648168E1
4.819869792E0,1.039994547E1,-2.048294261E0,2.878257406E0,1.098356685E1
4.829805792E0,1.077517182E1,-2.368969601E0,3.379721637E0,1.153858150E1
4.839741792E0,1.104800758E1,-2.725719922E0,3.649784063E0,1.195026963E1
4.849677792E0,1.129144822E1,-2.941802607E0,3.881258374E0,1.229695784E1
4.859613792E0,1.098224395E1,-2.917252195E0,4.312068359E0,1.215376386E1
4.869549792E0,1.041342213E1,-2.733982038E0,5.164483643E0,1.194093420E1
4.879485792E0,1.007321943E1,-2.419598887E0,6.507120132E0,1.223383917E1
4.889421792E0,1.021817074E1,-2.256405145E0,8.072583484E0,1.321623931E1
4.899357792E0,1.062995739E1,-2.590375591E0,9.351741430E0,1.439309236E1
4.909293792E0,1.070323236E1,-2.954094039E0,1.032802004E1,1.516422937E1
4.919230792E0,1.046245103E1,-3.094500305E0,1.094811141E1,1.545638888E1
4.929166792E0,1.011392891E1,-3.312197406E0,1.116682300E1,1.542595688E1
4.939102792E0,9.287985145E0,-3.664713174E0,1.083802471E1,1.473633504E1
4.949038792E0,8.173024031E0,-3.949936261E0,1.007696516E1,1.356265258E1
4.958974792E0,6.619612960E0,-4.193595584E0,9.469518387E0,1.229135054E1
4.968910792E0,4.934148370E0,-4.486513606E0,9.387645088E0,1.151531610E1
4.978846792E0,3.347909861E0,-4.912072207E0,9.759287683E0,1.142718906E1
4.988782792E0,2.010575627E0,-5.504807382E0,1.018704601E1,1.175249867E1
4.998718792E0,1.019909361E0,-6.149203876E0,1.019451407E1,1.194910208E1
5.008654792E0,3.897192621E-1,-7.026586186E0,1.005191101E1,1.227052197E1
5.018590792E0,-3.359213698E-1,-8.121439894E0,9.741488174E0,1.268728580E1
5.028526792E0,-1.239412667E0,-8.987264598E0,9.466694182E0,1.311203140E1
5.038462792E0,-1.732819435E0,-9.986705196E0,9.317716482E0,1.376796224E1
5.048398792E0,-1.943019821E0,-1.104848238E1,9.409196171E0,1.464162769E1
5.058334792E0,-2.349375581E0,-1.128513206E1,9.906633425E0,1.519918277E1
5.068270792E0,-2.423637559E0,-1.132240104E1,1.038864865E1,1.555618221E1
5.078206792E0,-2.297317235E0,-1.122146056E1,1.047475825E1,1.552157866E1
5.088142792E0,-2.036515630E0,-1.092068680E1,1.017389211E1,1.506376038E1
5.098078792E0,-1.861261713E0,-1.059635110E1,9.679776660E0,1.447221573E1
5.108014792E0,-2.043234665E0,-1.078390054E1,8.940471085E0,1.415624746E1
5.117950792E0,-2.613326497E0,-1.172714063E1,7.955607011E0,1.440996133E1
5.127886792E0,-3.173781533E0,-1.279966499E1,7.077753416E0,1.496659302E1
5.137822792E0,-3.487043480E0,-1.353969562E1,6.628142878E0,1.547304455E1
5.147758792E0,-3.858476160E0,-1.367794719E1,6.291679471E0,1.554217836E1
5.157694792E0,-3.929212267E0,-1.348973935E1,5.823772411E0,1.520947408E1
5.167630792E0,-3.817791233E0,-1.303373371E1,5.327313396E0,1.458883177E1
5.177567792E0,-3.629294835E0,-1.254455916E1,4.736306074E0,1.389137649E1
5.187503792E0,-3.518505301E0,-1.214675787E1,4.053250129E0,1.327977571E1
5.197439792E0,-3.543716741E0,-1.183473408E1,3.450557731E0,1.282673800E1
5.207375792E0,-3.699678939E0,-1.182663919E1,2.808786052E0,1.270615197E1
5.217311792E0,-3.795458378E0,-1.205266682E1,2.280400071E0,1.284026893E1
5.227247792E0,-3.675107769E0,-1.206596690E1,2.024458086E0,1.277467827E1
5.237183792E0,-3.383943327E0,-1.179547119E1,1.783719447E0,1.240023662E1
5.247119792E0,-2.656464623E0,-1.151188357E1,1.426204310E0,1.190018178E1
5.257055792E0,-1.891917203E0,-1.110568218E1,9.565828460E-1,1.130621856E1
5.266991792E0,-1.189272647E0,-1.075399087E1,3.967856222E-1,1.082682446E1
5.276927792E0,-5.238595055E-1,-1.057974150E1,-1.561107177E-1,1.059385339E1
5.286863792E0,-1.194277717E-1,-1.048446697E1,-6.478849429E-1,1.050514472E1
5.296799792E0,9.546800159E-2,-1.053505708E1,-9.876526111E-1,1.058168226E1
5.306735792E0,1.632916101E-1,-1.068073929E1,-9.175047344E-1,1.072131852E1
5.316671792E0,2.003587912E-1,-1.077498588E1,-5.374982822E-1,1.079024415E1
5.326607792E0,2.272671660E-1,-1.099605624E1,-4.348322850E-1,1.100699697E1
5.336543917E0,3.017080685E-1,-1.140068473E1,-9.416543198E-1,1.144348518E1
5.346479917E0,7.294329898E-1,-1.151386110E1,-2.323948964E0,1.176867914E1
5.356415917E0,1.528901444E0,-1.122610208E1,-4.361408334E0,1.214021376E1
5.366351917E0,2.437125916E0,-1.075259923E1,-6.424897170E0,1.276077100E1
5.376287917E0,2.830634466E0,-1.014931159E1,-7.739725471E0,1.307380463E1
5.386223917E0,2.463093985E0,-9.577844489E0,-7.903848043E0,1.265988748E1
5.396159917E0,1.753347547E0,-9.318440952E0,-7.139649117E0,1.186937905E1
5.406095917E0,1.165348033E0,-9.545530436E0,-6.069547842E0,1.137165768E1
5.416031917E0,8.014288791E-1,-9.873193198E0,-5.266838568E0,1.121881548E1
5.425967917E0,1.276892735E0,-9.768373672E0,-5.372088450E0,1.122100323E1
5.435904917E0,1.800202894E0,-9.224477366E0,-6.136574475E0,1.122449373E1
5.445840917E0,2.248852296E0,-8.671554129E0,-6.711821796E0,1.119382595E1
5.455776917E0,2.705428330E0,-8.209377925E0,-7.114913641E0,1.119532154E1
5.465712917E0,2.952809991E0,-7.872509306E0,-7.388342893E0,1.119299336E1
5.475648917E0,3.190164554E0,-7.553452476E0,-7.622878806E0,1.119553819E1
5.485584917E0,3.298920134E0,-7.127921941E0,-7.990973895E0,1.120472262E1
5.495520917E0,2.998122988E0,-6.726576660E0,-8.304219178E0,1.109935274E1
5.505456917E0,2.525960909E0,-6.350497783E0,-8.405512834E0,1.083337189E1
5.515392917E0,2.312658868E0,-5.746231899E0,-8.161482797E0,1.024584665E1
5.525328917E0,2.742803440E0,-5.085713462E0,-7.781804373E0,9.692467768E0
5.535264917E0,3.500428049E0,-4.542911171E0,-7.558126155E0,9.487692523E0
5.545200917E0,4.568992968E0,-4.138434706E0,-7.802441536E0,9.943864062E0
5.555136917E0,5.582513369E0,-3.846220104E0,-8.419671866E0,1.080965952E1
5.565072917E0,6.458593504E0,-3.449099436E0,-9.017785310E0,1.161594460E1
5.575008917E0,7.000293011E0,-2.991249294E0,-9.237824221E0,1.197034130E1
5.584944917E0,7.218922158E0,-2.535767567E0,-8.504904975E0,1.144012076E1
5.594880917E0,7.489465810E0,-2.042359922E0,-7.038100523E0,1.047846321E1
5.604816917E0,7.753934205E0,-1.498682887E0,-5.452523333E0,9.596851398E0
5.614752917E0,8.077060697E0,-1.034584703E0,-4.508982117E0,9.308071484E0
5.624688917E0,8.348638136E0,-1.019375218E0,-4.065667276E0,9.341762948E0
5.634624917E0,8.302224108E0,-1.202384735E0,-3.903291852E0,9.252477586E0
5.644560917E0,8.307223477E0,-1.484088237E0,-4.194088504E0,9.423526844E0
5.654496917E0,8.324454052E0,-1.793442344E0,-4.271843609E0,9.526889237E0
5.664432917E0,8.676548821E0,-1.739196847E0,-3.741949046E0,9.607782667E0
5.674368917E0,9.731814541E0,-1.649286405E0,-3.045928069E0,1.032986146E1
5.684304917E0,1.057514793E1,-1.530325972E0,-1.984801100E0,1.086807650E1
5.694240917E0,1.075356753E1,-1.190365784E0,-4.543385965E-1,1.082878612E1
5.704177917E0,1.105401150E1,-1.196254076E0,1.100643622E0,1.117289624E1
5.714113917E0,1.144120009E1,-1.603926337E0,2.398231407E0,1.179937088E1
5.724049917E0,1.069633264E1,-2.225859875E0,3.765482334E0,1.155616032E1
5.733985917E0,9.615390045E0,-2.733399655E0,5.439777573E0,1.138061419E1
5.743921917E0,9.017666611E0,-2.931840706E0,7.083534558E0,1.183598170E1
5.753857917E0,8.805571727E0,-3.042427341E0,8.360639547E0,1.251777741E1
5.763793917E0,8.678880690E0,-2.914155217E0,8.732304361E0,1.265181450E1
5.773729917E0,8.025968896E0,-2.687598415E0,8.369134381E0,1.190301526E1
5.783665917E0,7.632675816E0,-2.711643335E0,7.955420485E0,1.135339001E1
5.793601917E0,7.705150884E0,-2.597913237E0,8.000156947E0,1.140705985E1
5.803537917E0,7.553262441E0,-2.858017854E0,9.483796118E0,1.245642117E1
5.813473917E0,7.364645298E0,-2.861334980E0,9.596611712E0,1.243061521E1
5.823409917E0,7.173451286E0,-3.881574708E0,1.058216927E1,1.336066360E1
5.833345917E0,6.640354203E0,-5.520604804E0,1.135155292E1,1.426285858E1
5.843281917E0,5.652858882E0,-7.328305437E0,1.160953558E1,1.484722838E1
5.853217917E0,4.454458585E0,-8.734028120E0,1.154000166E1,1.514255879E1
5.863153917E0,3.122659911E0,-9.551674106E0,1.144018034E1,1.522705517E1
5.873089917E0,1.500410154E0,-9.780396717E0,1.122722474E1,1.496522522E1
5.883025917E0,2.529856324E-1,-9.806597505E0,1.087119480E1,1.464295847E1
5.892961917E0,-5.614800525E-1,-9.812879169E0,1.053445131E1,1.440772438E1
5.902897917E0,-1.136151423E0,-9.653198141E0,1.029455876E1,1.415814305E1
5.912833917E0,-1.451408733E0,-9.528559477E0,1.001769076E1,1.390158844E1
5.922769917E0,-1.474666618E0,-9.745908669E0,9.345801244E0,1.358312844E1
5.932705917E0,-1.196370728E0,-1.028899455E1,8.527965809E0,1.341718721E1
5.942641917E0,-9.142688853E-1,-1.091782634E1,7.653556808E0,1.336457075E1
5.952577917E0,-9.449644285E-1,-1.167650257E1,6.976765569E0,1.363484242E1
5.962514917E0,-1.412715953E0,-1.237246508E1,6.615985347E0,1.410123826E1
5.972450917E0,-1.997781919E0,-1.290255026E1,6.458129236E0,1.456620640E1
5.982386917E0,-2.519510846E0,-1.313639678E1,6.443815836E0,1.484707439E1
5.992322917E0,-2.907416301E0,-1.311593621E1,6.564667844E0,1.495244850E1
6.002258917E0,-3.003934536E0,-1.314672998E1,6.796305876E0,1.510132132E1
6.012194917E0,-2.874659030E0,-1.307519632E1,6.971865018E0,1.509408245E1
6.022130917E0,-2.569996875E0,-1.292394639E1,6.663713245E0,1.476612165E1
6.032066917E0,-2.519970437E0,-1.243977588E1,6.062021890E0,1.406578773E1
6.042002917E0,-2.485100566E0,-1.201123345E1,5.408755755E0,1.340522632E1
6.051938917E0,-2.376182434E0,-1.200713572E1,4.747841461E0,1.312857760E1
6.061874917E0,-2.330723840E0,-1.194534702E1,3.870610594E0,1.277126523E1
6.071810917E0,-1.981260611E0,-1.186093194E1,2.719122509E0,1.232885750E1
6.081746917E0,-1.722693081E0,-1.168037460E1,1.567484150E0,1.191032446E1
6.091682917E0,-1.681123471E0,-1.127383874E1,8.722806144E-1,1.143181917E1
6.101618917E0,-1.574938619E0,-1.101137594E1,7.234303844E-1,1.114693605E1
6.111554917E0,-1.515972811E0,-1.084981387E1,7.302049685E-1,1.097951883E1
6.121490917E0,-1.369763622E0,-1.082894516E1,5.655234021E-1,1.092987293E1
6.131426917E0,-1.169470612E0,-1.106285483E1,1.402162313E-1,1.112537995E1
6.141362917E0,-1.207080269E0,-1.122429646E1,-6.588215750E-1,1.130822354E1
6.151298917E0,-1.067655824E0,-1.129631076E1,-1.587326092E0,1.145714318E1
6.161234917E0,-4.855794292E-1,-1.128846497E1,-2.271581885E0,1.152498646E1
6.171170917E0,4.187085148E-2,-1.128432397E1,-2.649978599E0,1.159138073E1
6.181106917E0,3.966921764E-1,-1.123418761E1,-2.559138595E0,1.152881287E1
6.191042917E0,8.108078130E-1,-1.125982180E1,-2.302822389E0,1.152145769E1
6.200979917E0,1.102902109E0,-1.144257769E1,-2.453898654E0,1.175459893E1
6.210915917E0,1.422008640E0,-1.153490055E1,-2.968981050E0,1.199545280E1
6.220851917E0,1.761249767E0,-1.139661390E1,-3.631233187E0,1.209010602E1
6.230787917E0,2.097177861E0,-1.117707902E1,-4.472835799E0,1.222012727E1
6.240723917E0,2.076334584E0,-1.079380690E1,-5.370665238E0,1.223362079E1
6.250659917E0,1.962824048E0,-1.023034464E1,-6.235928609E0,1.214081691E1
6.260595917E0,1.896893622E0,-9.782271334E0,-7.006872298E0,1.218143248E1
6.270531917E0,2.040222618E0,-9.483887334E0,-7.945404789E0,1.253938135E1
6.280467917E0,2.359202412E0,-8.990630840E0,-8.495903186E0,1.259276180E1
6.290403917E0,2.606931690E0,-8.443734913E0,-8.558074876E0,1.230176401E1
6.300339917E0,2.954598654E0,-7.954315946E0,-8.699900846E0,1.215273920E1
6.310275917E0,3.147594193E0,-7.421841592E0,-8.930652441E0,1.203111112E1
6.320211917E0,2.932546757E0,-7.050890722E0,-9.045934975E0,1.183823593E1
6.330147708E0,2.386867051E0,-6.889423370E0,-8.778360540E0,1.141143735E1
6.340083708E0,1.849557341E0,-6.620183063E0,-8.183679997E0,1.068738997E1
6.350019708E0,1.459659154E0,-6.396101972E0,-7.859426746E0,1.023773969E1
6.359955708E0,1.409677740E0,-6.401569118E0,-7.915653571E0,1.027739510E1
6.369891708E0,2.004355944E0,-6.164132987E0,-8.235773426E0,1.048055066E1
6.379827708E0,3.024553573E0,-5.609048034E0,-8.807391381E0,1.087103892E1
6.389763708E0,4.211885382E0,-5.086871796E0,-9.279308462E0,1.138954822E1
6.399699708E0,4.965034533E0,-4.499641190E0,-9.395330669E0,1.153995568E1
6.409635708E0,5.245173465E0,-3.870004238E0,-9.288014966E0,1.134707008E1
6.419571708E0,5.370624892E0,-3.445035329E0,-8.802382071E0,1.087169767E1
6.429507708E0,5.567196003E0,-3.046138277E0,-7.680003764E0,9.962684756E0
6.439443708E0,5.977552428E0,-2.640155861E0,-6.615476639E0,9.298714275E0
6.449379708E0,6.353236034E0,-2.323690809E0,-5.587664766E0,8.774117883E0
6.459315708E0,6.598436683E0,-2.189105739E0,-4.732832243E0,8.410187373E0
6.469252708E0,6.626539571E0,-2.333084215E0,-4.383521919E0,8.280674674E0
6.479188708E0,6.616008736E0,-2.352014576E0,-3.937952977E0,8.050529039E0
6.489124708E0,7.249960349E0,-1.864024815E0,-3.519810399E0,8.271975509E0
6.499060708E0,8.101174614E0,-1.199898353E0,-3.272928091E0,8.819344901E0
6.508996708E0,8.847290441E0,-6.515903234E-1,-2.827208290E0,9.310865954E0
6.518932708E0,9.229353359E0,-4.133193554E-1,-2.248502340E0,9.508288968E0
6.528868708E0,9.184491182E0,-5.330326905E-1,-1.704632932E0,9.356536515E0
6.538804708E0,8.919166170E0,-8.136285098E-1,-1.160158921E0,9.031029025E0
6.548740708E0,8.978161068E0,-1.183017588E0,-7.227310574E-1,9.084560912E0
6.558676708E0,8.972112123E0,-1.771139163E0,-1.681705999E-1,9.146803334E0
6.568612708E0,9.265162877E0,-1.963537408E0,9.629376000E-1,9.519767388E0
6.578548708E0,9.892048130E0,-2.120298921E0,2.282062435E0,1.037092535E1
6.588484708E0,1.023370562E1,-2.533958438E0,3.818927055E0,1.121311196E1
6.598420708E0,1.032814166E1,-2.664942209E0,5.197238576E0,1.186523139E1
6.608356708E0,9.931437314E0,-2.484854691E0,6.321977988E0,1.203226311E1
6.618292708E0,9.352807378E0,-2.272943702E0,7.309694334E0,1.208606264E1
6.628228708E0,9.118867881E0,-2.093427165E0,8.442127513E0,1.260181359E1
6.638164708E0,8.997021262E0,-2.346825610E0,9.917720915E0,1.359467433E1
6.648100708E0,8.854783648E0,-2.765816034E0,1.147030168E1,1.475211010E1
6.658036708E0,8.507932078E0,-2.992484518E0,1.280252545E1,1.566028511E1
6.667972708E0,7.970005780E0,-3.577049963E0,1.345237798E1,1.604003591E1
6.677908708E0,7.317304485E0,-4.658117107E0,1.319280604E1,1.578895599E1
6.687844708E0,6.256816617E0,-5.744709284E0,1.259002009E1,1.518743049E1
6.697780708E0,4.961895747E0,-7.160931813E0,1.172243479E1,1.460530148E1
6.707716708E0,3.493420161E0,-8.728539923E0,1.078556583E1,1.430803355E1
6.717653708E0,2.043415344E0,-9.874946194E0,1.043367805E1,1.451040132E1
6.727589708E0,7.115880185E-1,-1.060519092E1,1.102213950E1,1.531221706E1
6.737525708E0,-4.323185670E-1,-1.085250242E1,1.217292767E1,1.631391664E1
6.747461708E0,-1.075036910E0,-1.108371536E1,1.311302312E1,1.720336670E1
6.757397708E0,-1.772198678E0,-1.138647717E1,1.349257876E1,1.774379418E1
6.767333708E0,-2.279429433E0,-1.145326874E1,1.328641997E1,1.768903951E1
6.777269708E0,-2.293748680E0,-1.189581058E1,1.236693946E1,1.731221488E1
6.787205708E0,-2.497349898E0,-1.268236049E1,1.086056573E1,1.688285853E1
6.797141708E0,-2.891864462E0,-1.356294298E1,9.225262063E0,1.665598278E1
6.807077708E0,-2.798061674E0,-1.425714781E1,8.000189107E0,1.658609172E1
6.817013708E0,-2.927288648E0,-1.417908280E1,7.472147527E0,1.629258717E1
6.826949708E0,-3.138212335E0,-1.365772869E1,7.549296860E0,1.591772008E1
6.836885708E0,-2.982327320E0,-1.308541959E1,8.021540215E0,1.563545936E1
6.846821708E0,-2.753954665E0,-1.267423754E1,8.201836186E0,1.534570560E1
6.856757708E0,-2.532709473E0,-1.233707305E1,7.897337753E0,1.486559559E1
6.866693708E0,-2.394638000E0,-1.237098573E1,7.131237313E0,1.447860921E1
6.876629708E0,-2.761758943E0,-1.260476209E1,6.036942013E0,1.424612258E1
6.886565708E0,-3.230631964E0,-1.267317802E1,4.777413754E0,1.392372458E1
6.896501708E0,-3.350710677E0,-1.261050990E1,3.419827690E0,1.348878955E1
6.906437708E0,-3.324443230E0,-1.250570909E1,2.056332428E0,1.310241144E1
6.916373708E0,-3.333201190E0,-1.216348676E1,8.875740069E-1,1.264311781E1
6.926309708E0,-2.854196114E0,-1.175869922E1,7.679849982E-2,1.210038598E1
6.936245708E0,-2.195919938E0,-1.136002436E1,-3.668923169E-1,1.157613182E1
6.946181708E0,-1.456105801E0,-1.110585993E1,-5.814839619E-1,1.121599271E1
6.956118708E0,-9.827769104E-1,-1.103962501E1,-8.113157898E-1,1.111293859E1
6.966054708E0,-5.859847100E-1,-1.120098945E1,-9.962176126E-1,1.126046146E1
6.975990708E0,-4.019943219E-1,-1.159950761E1,-1.165215009E0,1.166481471E1
6.985926708E0,-4.712424584E-1,-1.200204981E1,-1.451960126E0,1.209873784E1
6.995862708E0,-5.927270613E-1,-1.220557853E1,-2.016282510E0,1.238518743E1
7.005798708E0,-5.886485553E-1,-1.201342966E1,-2.815972281E0,1.235308461E1
7.015734708E0,-2.854436727E-1,-1.162470209E1,-3.745172616E0,1.221644362E1
7.025670708E0,-3.356272548E-2,-1.125882543E1,-4.475906757E0,1.211594065E1
7.035606708E0,2.486265332E-2,-1.091872915E1,-4.875905424E0,1.195799808E1
7.045542708E0,8.185371011E-3,-1.074247770E1,-5.212786907E0,1.194043724E1
7.055478708E0,-8.139616549E-3,-1.065971972E1,-5.755098032E0,1.211407628E1
7.065414708E0,-2.186493203E-1,-1.047764444E1,-6.367511426E0,1.226270942E1
7.075350708E0,-6.055043238E-1,-1.030650696E1,-6.655642918E0,1.228366004E1
7.085286708E0,-1.344930936E0,-1.020051916E1,-6.467945541E0,1.215293174E1
7.095222708E0,-1.895100719E0,-1.019282189E1,-5.813064405E0,1.188598934E1
7.105158708E0,-1.748967398E0,-1.008633240E1,-5.336614562E0,1.154436846E1
7.115094708E0,-1.001690314E0,-9.798821878E0,-5.638022157E0,1.134934304E1
7.125030708E0,-2.561782122E-2,-9.342239120E0,-6.366343737E0,1.130523864E1
7.134966708E0,9.658337259E-1,-8.611635371E0,-7.143432266E0,1.123039283E1
7.144902708E0,1.837349817E0,-7.765105310E0,-7.810135303E0,1.116561365E1
7.154838708E0,2.206960504E0,-6.882441210E0,-8.081177137E0,1.084177548E1
7.164774708E0,2.105514821E0,-6.116719084E0,-7.875638736E0,1.019181684E1
7.174710708E0,1.752054436E0,-5.622718239E0,-7.476666255E0,9.517625409E0
7.184646708E0,1.476846168E0,-5.333667566E0,-7.152467383E0,9.043609565E0
7.194582708E0,1.579579700E0,-5.201714619E0,-6.994365104E0,8.858558021E0
7.204518708E0,2.010094986E0,-5.053243289E0,-7.374474467E0,9.162893825E0
7.214455708E0,2.332219850E0,-4.864194036E0,-7.827451247E0,9.506241427E0
7.224391708E0,2.558276716E0,-4.747484196E0,-7.999463468E0,9.647528270E0
7.234327708E0,2.690001036E0,-4.654118196E0,-7.942724426E0,9.590818164E0
7.244263708E0,2.999647357E0,-4.502919724E0,-7.654519844E0,9.373678272E0
7.254199708E0,3.484245880E0,-4.269867250E0,-7.290176913E0,9.138841015E0
7.264135708E0,4.238184112E0,-3.890467446E0,-6.850453432E0,8.945761775E0
7.274071708E0,5.218454613E0,-3.143122827E0,-6.422982207E0,8.852468022E0
7.284007708E0,6.153085257E0,-2.400132337E0,-6.051607414E0,8.957848275E0
7.293943708E0,7.036074463E0,-1.720027774E0,-5.599124724E0,9.155055274E0
7.303879708E0,7.754390287E0,-1.282751937E0,-5.425901545E0,9.550729231E0
7.313815708E0,8.143492084E0,-1.216101280E0,-5.551188666E0,9.930310229E0
7.323751708E0,8.342778642E0,-1.196708551E0,-5.464493753E0,1.004463831E1
7.333688083E0,8.290657731E0,-1.144330801E0,-5.154198391E0,9.829051818E0
7.343624083E0,7.982830478E0,-1.410565201E0,-4.520125741E0,9.281530765E0
7.353560083E0,8.069292086E0,-1.616494634E0,-3.681584145E0,9.015574940E0
7.363496083E0,8.163455647E0,-1.756166782E0,-2.814735010E0,8.811859228E0
7.373432083E0,8.403799599E0,-2.096882577E0,-2.391002494E0,8.985413578E0
7.383368083E0,8.701668459E0,-2.570048038E0,-2.211040984E0,9.338783814E0
7.393304083E0,8.088811262E0,-3.340854025E0,-1.578465806E0,8.892790763E0
7.403240083E0,7.345344808E0,-4.471806690E0,4.022124231E-2,8.599579244E0
7.413176083E0,7.226827594E0,-5.244983431E0,2.963499286E0,9.408465139E0
7.423112083E0,7.837439461E0,-4.968890771E0,6.513670768E0,1.133769111E1
7.433048083E0,8.495823664E0,-4.238988104E0,9.774308596E0,1.362663379E1
7.442984083E0,8.517764756E0,-3.443621764E0,1.251124172E1,1.552230707E1
7.452920083E0,8.297960903E0,-2.968589287E0,1.410841102E1,1.663478100E1
7.462857083E0,7.868968817E0,-3.033320888E0,1.429620370E1,1.659828745E1
7.472793083E0,7.385292985E0,-3.089693309E0,1.352639905E1,1.571789517E1
7.482729083E0,7.330566555E0,-2.835868601E0,1.178010705E1,1.416157755E1
7.492665083E0,7.845171819E0,-2.743291390E0,9.721400065E0,1.278976105E1
7.502601083E0,8.567490647E0,-2.998474991E0,7.912765047E0,1.204178554E1
7.512537083E0,8.576982433E0,-3.379769000E0,6.862570032E0,1.149270784E1
7.522473083E0,8.093762684E0,-3.775182865E0,6.901873847E0,1.128702187E1
7.532409083E0,7.124699541E0,-4.373622583E0,7.928017509E0,1.152143132E1
7.542345083E0,5.940020905E0,-5.639686275E0,8.847005097E0,1.205650898E1
7.552281083E0,4.741159263E0,-7.031123625E0,9.196427103E0,1.250957881E1
7.562217083E0,3.288252473E0,-8.211294642E0,9.445835994E0,1.294070252E1
7.572153083E0,2.068826174E0,-9.437331219E0,9.700294540E0,1.369083549E1
7.582089083E0,8.802509540E-1,-1.047335960E1,9.785473269E0,1.436041748E1
7.592025083E0,2.558876055E-1,-1.129963666E1,9.647570196E0,1.486011029E1
7.601961083E0,-7.654122233E-2,-1.198528818E1,9.611109298E0,1.536315115E1
7.611897083E0,-4.630024159E-1,-1.267004391E1,9.473208565E0,1.582675155E1
7.621833083E0,-1.037380841E0,-1.353985817E1,9.115211617E0,1.635515213E1
7.631769083E0,-1.909836287E0,-1.413182093E1,8.686434708E0,1.669760418E1
7.641705083E0,-2.471698748E0,-1.497378022E1,8.175274040E0,1.723828572E1
7.651641083E0,-2.904344759E0,-1.606441458E1,7.556234581E0,1.798881084E1
7.661577083E0,-3.480687264E0,-1.651811875E1,7.256518001E0,1.837445195E1
7.671513083E0,-3.764114671E0,-1.627056519E1,7.387158832E0,1.826116005E1
7.681449083E0,-3.628910673E0,-1.571046625E1,7.536955726E0,1.779869220E1
7.691386083E0,-3.270435130E0,-1.536009524E1,7.395840193E0,1.735876504E1
7.701322083E0,-3.136641188E0,-1.515670218E1,6.843108160E0,1.692312820E1
7.711258083E0,-2.894616162E0,-1.495485512E1,5.977082312E0,1.636312951E1
7.721194083E0,-2.838266252E0,-1.464264188E1,4.924751894E0,1.570719254E1
7.731130083E0,-2.826307234E0,-1.438133916E1,3.806477748E0,1.514266164E1
7.741066083E0,-2.862532489E0,-1.413727638E1,2.695890936E0,1.467393961E1
7.751002083E0,-3.054477576E0,-1.391528216E1,1.610147189E0,1.433727606E1
7.760938083E0,-3.069812191E0,-1.383741479E1,6.566002178E-1,1.418904221E1
7.770874083E0,-2.935643150E0,-1.376751250E1,-2.495182335E-2,1.407703888E1
7.780810083E0,-2.890482472E0,-1.342727237E1,-5.643399256E-1,1.374645452E1
7.790746083E0,-2.570425476E0,-1.302291870E1,-9.905417204E-1,1.331107327E1
7.800682083E0,-2.141168657E0,-1.284816297E1,-1.210896381E0,1.308151998E1
7.810618083E0,-1.745239213E0,-1.268074315E1,-1.297692450E0,1.286588949E1
7.820554083E0,-1.183998824E0,-1.254766403E1,-1.450373191E0,1.268657985E1
7.830490083E0,-5.030815709E-1,-1.271922485E1,-1.687204721E0,1.284049966E1
7.840426083E0,6.255248979E-2,-1.293908366E1,-1.977330113E0,1.308944740E1
7.850362083E0,4.857502775E-1,-1.305015503E1,-2.339183300E0,1.326703728E1
7.860298083E0,7.920473139E-1,-1.320436833E1,-2.856623878E0,1.353303299E1
7.870234083E0,8.821863824E-1,-1.338619685E1,-3.258591303E0,1.380532275E1
7.880170083E0,7.196241394E-1,-1.343076784E1,-3.350319498E0,1.386102537E1
7.890106083E0,7.786392099E-1,-1.313826322E1,-3.411713508E0,1.359632408E1
7.900042083E0,1.245134899E0,-1.283545697E1,-4.032525258E0,1.351149793E1
7.909978083E0,1.557251230E0,-1.262728323E1,-5.373612819E0,1.381119212E1
7.919915083E0,1.297717447E0,-1.233810450E1,-6.765523210E0,1.413100129E1
7.929851083E0,7.957002157E-1,-1.205728027E1,-7.899011226E0,1.443625730E1
7.939787083E0,6.272825709E-1,-1.165612035E1,-8.654639304E0,1.453139382E1
7.949723083E0,6.180537643E-1,-1.084828541E1,-8.836459644E0,1.400536703E1
7.959659083E0,5.838456523E-1,-1.016181995E1,-8.501889566E0,1.326218634E1
7.969595083E0,6.509491763E-1,-9.744274372E0,-7.828199106E0,1.251620226E1
7.979531083E0,7.573190922E-1,-9.303944535E0,-7.027976654E0,1.168457838E1
7.989467083E0,1.248157471E0,-8.810319666E0,-6.808323659E0,1.120414659E1
7.999403083E0,1.641874182E0,-8.184593332E0,-7.090261195E0,1.095240260E1
8.009339083E0,1.573852645E0,-7.685715909E0,-7.565678419E0,1.089893257E1
8.019275083E0,1.313831643E0,-7.426214139E0,-8.157741748E0,1.110961568E1
8.029211083E0,9.456432903E-1,-7.100342964E0,-8.639869237E0,1.122303220E1
8.039147083E0,7.259435177E-1,-6.507705438E0,-8.527720810E0,1.075170899E1
8.049083083E0,1.293937368E0,-5.911589404E0,-8.137122127E0,1.014070607E1
8.059019083E0,2.368953229E0,-5.319846502E0,-8.005282617E0,9.899356341E0
8.068955083E0,3.548720788E0,-4.710485939E0,-8.205190734E0,1.010481331E1
8.078891083E0,4.766993431E0,-4.298749571E0,-9.005786823E0,1.105927984E1
8.088827083E0,5.845507681E0,-3.786950387E0,-1.015634228E1,1.231512248E1
8.098763083E0,6.350919367E0,-3.117521378E0,-1.122282997E1,1.326668870E1
8.108699083E0,6.342449090E0,-2.735188903E0,-1.156840510E1,1.347352646E1
8.118635083E0,6.319592909E0,-2.627929626E0,-1.077229148E1,1.276266165E1
8.128571083E0,6.965907290E0,-2.462596680E0,-9.130547109E0,1.174543049E1
8.138507083E0,8.079343450E0,-2.037810788E0,-7.416289076E0,1.115481094E1
8.148443083E0,9.322773154E0,-1.467648790E0,-6.111463022E0,1.124357917E1
8.158379083E0,1.034234221E1,-1.145722292E0,-5.342738351E0,1.169707549E1
8.168316083E0,1.074199706E1,-1.398476083E0,-4.944969227E0,1.190793672E1
8.178252083E0,1.063988011E1,-1.767071109E0,-4.262712012E0,1.159742656E1
8.188188083E0,1.054131711E1,-1.850620219E0,-3.211275049E0,1.117391825E1
8.198124083E0,1.098049212E1,-1.694325753E0,-2.219038221E0,1.132987545E1
8.208060083E0,1.168687436E1,-1.575774040E0,-1.390062085E0,1.187427340E1
8.217996083E0,1.197605426E1,-1.983363709E0,-7.860335988E-1,1.216459848E1
8.227932083E0,1.135439350E1,-2.881000043E0,2.963164240E-1,1.171794420E1
8.237868083E0,1.099253739E1,-3.867912396E0,1.655647883E0,1.177020792E1
8.247804083E0,1.134829602E1,-4.928927391E0,3.315984648E0,1.280913354E1
8.257740083E0,1.130826364E1,-5.824888059E0,5.492398421E0,1.385541728E1
8.267676083E0,1.111966989E1,-6.267953809E0,7.902213162E0,1.501263722E1
8.277612083E0,1.113016798E1,-6.330691509E0,1.022058797E1,1.638348903E1
8.287548083E0,1.077963792E1,-6.320071211E0,1.241859961E1,1.761719359E1
8.297484083E0,1.022668194E1,-6.014617344E0,1.426738863E1,1.855583530E1
8.307420083E0,9.709384037E0,-5.841870713E0,1.566079883E1,1.933029259E1
8.317356083E0,9.192061572E0,-6.083223310E0,1.636566898E1,1.973156666E1
8.327292083E0,8.057246822E0,-6.807309167E0,1.589850919E1,1.907934168E1
8.337227958E0,6.284299700E0,-7.661992586E0,1.463036038E1,1.767048381E1
8.347163958E0,4.362037202E0,-8.461495830E0,1.324222320E1,1.630891644E1
8.357099958E0,2.706448376E0,-9.537561851E0,1.194575516E1,1.552388531E1
8.367035958E0,1.229582036E0,-1.081584505E1,1.106164212E1,1.551948139E1
8.376971958E0,-3.004369569E-1,-1.167678441E1,1.091822980E1,1.598891173E1
8.386907958E0,-1.481890268E0,-1.195502300E1,1.124625509E1,1.648019500E1
8.396844958E0,-2.035998736E0,-1.224881050E1,1.137892490E1,1.684216677E1
8.406779958E0,-2.358242884E0,-1.252884535E1,1.131086331E1,1.704314831E1
8.416716958E0,-2.660980135E0,-1.277219009E1,1.104146806E1,1.709162578E1
8.426652958E0,-3.035380862E0,-1.339079978E1,1.041577856E1,1.723413760E1
8.436588958E0,-3.624042866E0,-1.427712190E1,9.490840843E0,1.752272685E1
8.446524958E0,-4.414016903E0,-1.523461282E1,8.567114087E0,1.802699134E1
8.456460958E0,-5.170183509E0,-1.612099692E1,7.813219124E0,1.864574301E1
8.466396958E0,-5.728210196E0,-1.658335614E1,7.351993677E0,1.902293100E1
8.476332958E0,-6.065900933E0,-1.660206957E1,6.985692514E0,1.900588772E1
8.486268958E0,-5.894727788E0,-1.640422084E1,6.644326801E0,1.865458002E1
8.496204958E0,-5.571441082E0,-1.591942702E1,6.459806217E0,1.806095814E1
8.506140958E0,-5.222565790E0,-1.522658108E1,6.468492841E0,1.734835337E1
8.516076958E0,-4.794542880E0,-1.475584631E1,6.214937689E0,1.671370971E1
8.526012958E0,-4.459801771E0,-1.451329913E1,5.531242644E0,1.615921807E1
8.535948958E0,-4.159969124E0,-1.439172148E1,4.560510120E0,1.565966931E1
8.545884958E0,-3.683541501E0,-1.421086359E1,3.523957245E0,1.509752949E1
8.555820958E0,-3.380200232E0,-1.394733543E1,2.415128106E0,1.455289535E1
8.565756958E0,-3.077787501E0,-1.365267669E1,1.294312760E0,1.405502054E1
8.575692958E0,-2.751878611E0,-1.332377198E1,4.933950734E-1,1.361393310E1
8.585628958E0,-2.750115091E0,-1.286084675E1,-3.121886909E-2,1.315163437E1
8.595564958E0,-2.704704152E0,-1.240701861E1,-3.608106279E-1,1.270353178E1
8.605500958E0,-2.644450057E0,-1.223513152E1,-7.015951270E-1,1.253729617E1
8.615436958E0,-2.696735274E0,-1.225029569E1,-1.092463952E0,1.259109221E1
8.625372958E0,-2.670880348E0,-1.237147222E1,-1.403589034E0,1.273408767E1
8.635308958E0,-2.471243250E0,-1.260027143E1,-1.651392864E0,1.294607978E1
8.645245958E0,-2.044934159E0,-1.271163633E1,-2.086823319E0,1.304309340E1
8.655181958E0,-1.135860378E0,-1.265895292E1,-2.817854499E0,1.301843200E1
8.665117958E0,-1.722952259E-1,-1.247492701E1,-3.449997568E0,1.294434134E1
8.675053958E0,4.541127478E-1,-1.225485652E1,-3.963567874E0,1.288788567E1
8.684989958E0,9.898285063E-1,-1.198555248E1,-4.501997618E0,1.284138666E1
8.694925958E0,1.408828139E0,-1.160961393E1,-5.127754358E0,1.276956527E1
8.704861958E0,1.272387163E0,-1.115527592E1,-5.529486725E0,1.251536549E1
8.714797958E0,7.545542362E-1,-1.075732378E1,-5.606081157E0,1.215390937E1
8.724733958E0,5.662743308E-1,-1.051718331E1,-5.719066905E0,1.198497133E1
8.734669958E0,6.197251908E-1,-1.022925355E1,-6.419263963E0,1.209250335E1
8.744605958E0,1.006501257E0,-9.912805746E0,-7.424071720E0,1.242552226E1
8.754541958E0,1.301695162E0,-9.327345092E0,-8.047675515E0,1.238785122E1
8.764477958E0,1.403418880E0,-8.617085561E0,-8.104223353E0,1.191227032E1
8.774413958E0,1.550673990E0,-8.100189943E0,-7.746118231E0,1.131459299E1
8.784349958E0,1.749534286E0,-7.796276232E0,-7.471014921E0,1.093886910E1
8.794285958E0,1.792200834E0,-7.404501089E0,-7.568123724E0,1.073848765E1
8.804221958E0,1.652117626E0,-7.004888923E0,-7.658203590E0,1.050933127E1
8.814157958E0,1.368145259E0,-6.772015373E0,-7.716999682E0,1.035780371E1
8.824093958E0,9.133467793E-1,-6.698272043E0,-7.864366474E0,1.037059838E1
8.834029958E0,4.570090199E-1,-6.603657078E0,-7.669833702E0,1.013131250E1
8.843965958E0,8.911776459E-1,-6.337794707E0,-7.377930171E0,9.767071872E0
8.853901958E0,1.693620871E0,-5.944509228E0,-7.278317006E0,9.548792596E0
8.863837958E0,2.736784608E0,-5.298691860E0,-7.281407259E0,9.411961384E0
8.873774958E0,3.801094217E0,-4.571690581E0,-7.621353852E0,9.666111243E0
8.883710958E0,4.348501775E0,-4.004235844E0,-7.960042709E0,9.914920691E0
8.893646958E0,4.678089441E0,-3.566053104E0,-7.713226474E0,9.700263821E0
8.903582958E0,4.926600784E0,-3.249256223E0,-6.885275356E0,9.068410997E0
8.913518958E0,5.173150386E0,-2.930271606E0,-6.065057765E0,8.493109106E0
8.923454958E0,5.653196851E0,-2.571962416E0,-5.362682619E0,8.205607240E0
8.933390958E0,6.395419017E0,-2.299979034E0,-4.832316186E0,8.339218649E0
8.943326958E0,7.163476521E0,-2.015163060E0,-4.683550740E0,8.792720032E0
8.953262958E0,7.939952846E0,-1.782832278E0,-4.749517858E0,9.422274779E0
8.963198958E0,8.752325812E0,-1.602730581E0,-4.749046572E0,1.008590084E1
8.973134958E0,9.709446017E0,-1.312246901E0,-4.841946550E0,1.092885082E1
8.983070958E0,1.038473920E1,-1.111426618E0,-4.670144244E0,1.144064354E1
8.993006958E0,1.095581570E1,-1.222679398E0,-3.849213293E0,1.167652712E1
9.002942958E0,1.164794828E1,-1.564238361E0,-2.598952872E0,1.203644868E1
9.012878958E0,1.223713244E1,-1.994858896E0,-1.207196263E0,1.245729486E1
9.022814958E0,1.255742654E1,-2.424223742E0,3.212588918E-1,1.279331972E1
9.032750958E0,1.287413747E1,-2.872574205E0,1.734783515E0,1.330430652E1
9.042686958E0,1.276849816E1,-3.321681005E0,3.198646817E0,1.357569341E1
9.052622958E0,1.198737447E1,-3.848555481E0,5.085736851E0,1.357841100E1
9.062558958E0,1.107929018E1,-3.983340819E0,7.272821208E0,1.383877174E1
9.072494958E0,1.058486132E1,-3.572606664E0,9.259415064E0,1.450998191E1
9.082430958E0,1.018714073E1,-3.349898499E0,1.043420430E1,1.496236197E1
9.092366958E0,9.625568293E0,-3.190518018E0,1.070340076E1,1.474427882E1
9.102302958E0,9.096511636E0,-2.883360271E0,1.053866949E1,1.421702659E1
9.112238958E0,8.816266869E0,-2.781166729E0,1.008156574E1,1.367842892E1
9.122175958E0,8.533835244E0,-2.691153522E0,9.359095473E0,1.294840991E1
9.132111958E0,7.841549469E0,-2.536150267E0,8.794448569E0,1.205256329E1
9.142047958E0,7.030796181E0,-2.453182370E0,8.687746823E0,1.144233995E1
9.151983958E0,6.075828921E0,-2.358051680E0,8.940366420E0,1.106373610E1
9.161919958E0,5.157230757E0,-2.743975514E0,9.413888562E0,1.107915739E1
9.171855958E0,4.595780525E0,-3.999589354E0,9.654407346E0,1.141601922E1
9.181791958E0,4.264434017E0,-6.074726720E0,9.606486490E0,1.213969872E1
9.191727958E0,3.276860343E0,-8.310538849E0,9.661760804E0,1.315874202E1
9.201663958E0,1.603360911E0,-1.007506832E1,1.015919572E1,1.439746594E1
9.211599958E0,-1.097955072E-1,-1.128303875E1,1.092281869E1,1.570436203E1
9.221535958E0,-1.222659810E0,-1.242701609E1,1.175459915E1,1.714923401E1
9.231471958E0,-2.453579396E0,-1.303870268E1,1.262472332E1,1.831424195E1
9.241407958E0,-3.630686472E0,-1.327039626E1,1.314956705E1,1.903145856E1
9.251343958E0,-4.363534967E0,-1.357586182E1,1.290375829E1,1.923152203E1
9.261279958E0,-4.702470576E0,-1.386680641E1,1.187945124E1,1.885531520E1
9.271215958E0,-4.561574898E0,-1.462223860E1,1.034462145E1,1.848320914E1
9.281151958E0,-4.385918693E0,-1.507512066E1,9.027891637E0,1.811072536E1
9.291087958E0,-4.219474191E0,-1.498852105E1,8.072410406E0,1.753919997E1
9.301023958E0,-3.795914753E0,-1.505560265E1,7.333404794E0,1.717145788E1
9.310959958E0,-3.374373189E0,-1.522385160E1,6.926944953E0,1.706266739E1
9.320895958E0,-3.315153174E0,-1.497659273E1,6.963076068E0,1.684556318E1
9.330831958E0,-3.599398606E0,-1.461196621E1,6.908681175E0,1.655883760E1
9.340767542E0,-3.830842511E0,-1.432923813E1,6.534490364E0,1.620808391E1
9.350704542E0,-4.146548887E0,-1.381634260E1,5.836086062E0,1.556101189E1
9.360640542E0,-4.317789860E0,-1.321025881E1,5.037846401E0,1.478290038E1
9.370576542E0,-4.097065363E0,-1.267955032E1,4.306708217E0,1.400373795E1
9.380512542E0,-3.659742164E0,-1.235257870E1,3.633275034E0,1.338583582E1
9.390448542E0,-3.453858777E0,-1.212291410E1,3.057260558E0,1.297077595E1
9.400384542E0,-3.361918620E0,-1.194665680E1,2.464865692E0,1.265308928E1
9.410320542E0,-3.445938139E0,-1.198686927E1,1.650191846E0,1.258104359E1
9.420256542E0,-3.571699761E0,-1.220965988E1,5.783562863E-1,1.273449369E1
9.430192542E0,-3.455573473E0,-1.243039695E1,-2.993388498E-1,1.290524545E1
9.440128542E0,-3.220580893E0,-1.233659709E1,-7.510152090E-1,1.277214911E1
9.450064542E0,-2.648476742E0,-1.213353147E1,-7.153015852E-1,1.243980190E1
9.460000542E0,-1.867791445E0,-1.203272314E1,-5.938783050E-1,1.219129863E1
9.469936542E0,-1.131005727E0,-1.193928463E1,-6.542607468E-1,1.201056820E1
9.479872542E0,-5.722102779E-1,-1.187485299E1,-1.107172623E0,1.194007493E1
9.489808542E0,5.887049809E-2,-1.186303226E1,-1.848953324E0,1.200639948E1
9.499744542E0,4.889916815E-1,-1.186671951E1,-2.563840342E0,1.215036716E1
9.509680542E0,6.987750149E-1,-1.177546319E1,-3.203274304E0,1.222337049E1
9.519616542E0,7.753694469E-1,-1.155341284E1,-3.657232246E0,1.214322419E1
9.529552542E0,6.030721745E-1,-1.134491633E1,-4.007709675E0,1.204709755E1
9.539488542E0,3.407482463E-1,-1.121124313E1,-4.213133470E0,1.198159320E1
9.549424542E0,1.334404778E-1,-1.115122263E1,-4.631641206E0,1.207558168E1
9.559360542E0,-8.620140731E-2,-1.119754427E1,-5.273295649E0,1.237740181E1
9.569296542E0,-2.242379428E-1,-1.112943708E1,-6.218037883E0,1.275063322E1
9.579232542E0,-1.485868129E-1,-1.105855362E1,-7.159183495E0,1.317450547E1
9.589168542E0,-1.062339681E-1,-1.092795021E1,-7.626064369E0,1.332622374E1
9.599105542E0,6.013539702E-1,-1.047789236E1,-7.635330452E0,1.297867967E1
9.609041542E0,1.645372571E0,-9.611631455E0,-7.701489358E0,1.242592646E1
9.618977542E0,2.163138254E0,-8.819171181E0,-7.954819976E0,1.207212112E1
9.628913542E0,2.170924407E0,-8.372214110E0,-8.042747481E0,1.181070146E1
9.638849542E0,1.900136926E0,-8.105055411E0,-7.924265935E0,1.149332129E1
9.648785542E0,1.571645029E0,-7.802685950E0,-7.652314859E0,1.104128158E1
9.658721542E0,1.478067651E0,-7.610700810E0,-7.521403302E0,1.080180348E1
9.668657542E0,1.690693170E0,-7.438830677E0,-7.916040072E0,1.099355883E1
9.678593542E0,2.087426167E0,-7.174896133E0,-8.683565480E0,1.145603736E1
9.688529542E0,2.550978806E0,-6.824943200E0,-9.376495618E0,1.187459526E1
9.698465542E0,3.123172712E0,-6.382317746E0,-9.912513385E0,1.219615141E1
9.708401542E0,3.860011346E0,-5.934486516E0,-1.026047417E1,1.246575902E1
9.718337542E0,4.569790821E0,-5.354821622E0,-1.006760844E1,1.228469953E1
9.728273542E0,5.139856925E0,-4.663026429E0,-9.478784469E0,1.174773594E1
9.738209542E0,5.730837350E0,-4.195033414E0,-8.826872549E0,1.132936367E1
9.748145542E0,6.265110308E0,-3.819976045E0,-7.823780365E0,1.072638631E1
9.758081542E0,7.282429937E0,-3.281028531E0,-6.889458454E0,1.054815490E1
9.768017542E0,8.236205535E0,-3.030127138E0,-6.103061743E0,1.068943940E1
9.777953542E0,9.136427069E0,-2.981104375E0,-4.973962646E0,1.082134868E1
9.787889542E0,1.020829947E1,-2.844516341E0,-4.027475603E0,1.133671958E1
9.797825542E0,1.101669223E1,-2.785766149E0,-3.089325519E0,1.177590476E1
9.807761542E0,1.164391604E1,-2.911049176E0,-1.708347083E0,1.212326020E1
9.817697542E0,1.239854834E1,-2.942927319E0,-5.415106416E-2,1.274314539E1
9.827633542E0,1.321647206E1,-2.976546763E0,1.852581521E0,1.367358851E1
9.837570542E0,1.359089384E1,-2.937988761E0,4.520624508E0,1.462122496E1
9.847506542E0,1.376273064E1,-2.524285682E0,7.478817446E0,1.586560693E1
9.857442542E0,1.398582765E1,-2.184037372E0,9.742502666E0,1.718399699E1
9.867378542E0,1.373959438E1,-2.017540246E0,1.109828194E1,1.777691718E1
9.877314542E0,1.322702629E1,-1.944885668E0,1.107588711E1,1.736122346E1
9.887250542E0,1.255604894E1,-1.867772003E0,9.993120761E0,1.615566154E1
9.897186542E0,1.112488209E1,-1.910426564E0,8.850392389E0,1.434371558E1
9.907122542E0,9.553189704E0,-1.863334551E0,7.923379498E0,1.255051361E1
9.917058542E0,8.410931448E0,-1.894778538E0,7.142933498E0,1.119622492E1
9.926994542E0,7.854826741E0,-1.756510014E0,6.418199185E0,1.029450880E1
9.936930542E0,7.312781079E0,-1.725061934E0,5.812241701E0,9.499197829E0
9.946866542E0,7.000080757E0,-1.743146787E0,5.474757956E0,9.056084474E0
9.956802542E0,6.498483794E0,-1.741880865E0,5.407940068E0,8.631932365E0
9.966738542E0,5.548412992E0,-1.817038636E0,5.667590942E0,8.136836192E0
9.976674542E0,4.673028676E0,-2.082049068E0,6.395191560E0,8.189664243E0
9.986610542E0,4.009969624E0,-2.255343583E0,7.247714433E0,8.584625534E0
9.996546542E0,3.112825479E0,-2.115778146E0,8.000123618E0,8.841276918E0
1.000648254E1,1.873791711E0,-1.991853135E0,8.482494351E0,8.912423055E0
1.001641854E1,8.922289753E-1,-2.178261493E0,8.603036456E0,8.919256244E0
1.002635454E1,2.656571335E-1,-3.093129133E0,8.483326995E0,9.033540748E0
1.003629054E1,-2.068592870E-1,-4.724669823E0,8.237294286E0,9.498332109E0
1.004622654E1,-2.416572368E-1,-6.700499833E0,8.122215235E0,1.053211643E1
1.005616254E1,-2.844670415E-1,-8.409811707E0,8.736135457E0,1.212954728E1
1.006609854E1,-6.002283812E-1,-9.545550901E0,1.020018938E1,1.398290669E1
1.007603554E1,-1.270422791E0,-1.046114126E1,1.187341458E1,1.587537162E1
1.008597154E1,-2.231733111E0,-1.150103816E1,1.291384240E1,1.743622198E1
1.009590754E1,-3.244952087E0,-1.237997524E1,1.325094608E1,1.842229825E1
1.010584354E1,-3.876346713E0,-1.322324548E1,1.305506202E1,1.898196326E1
1.011577954E1,-4.139826928E0,-1.411785544E1,1.222286289E1,1.912721586E1
1.012571554E1,-4.308174698E0,-1.458353237E1,1.122418185E1,1.890031862E1
1.013565154E1,-4.232500033E0,-1.475628836E1,1.020714289E1,1.843496321E1
1.014558754E1,-3.933212639E0,-1.484541279E1,9.252748654E0,1.792957892E1
1.015552354E1,-3.680932181E0,-1.460410989E1,8.479123431E0,1.728365765E1
1.016545954E1,-3.517460988E0,-1.424992884E1,7.711762331E0,1.658023769E1
1.017539554E1,-3.464553042E0,-1.394185893E1,7.001869420E0,1.598138710E1
1.018533154E1,-3.592060058E0,-1.353819172E1,6.446716640E0,1.541900405E1
1.019526754E1,-3.746937013E0,-1.322431786E1,5.714812471E0,1.488560383E1
1.020520354E1,-3.751425920E0,-1.334228426E1,4.648298462E0,1.461835916E1
1.021513954E1,-3.917074032E0,-1.327123592E1,3.588248550E0,1.429491866E1
1.022507554E1,-3.863484300E0,-1.274162787E1,2.759810359E0,1.359750510E1
1.023501154E1,-3.481378990E0,-1.210638870E1,2.026756042E0,1.275901199E1
1.024494754E1,-2.896645438E0,-1.153512275E1,1.480837770E0,1.198509458E1
1.025488354E1,-2.455221002E0,-1.106697946E1,9.817059928E-1,1.137848369E1
1.026481954E1,-2.020850062E0,-1.069886215E1,4.485843515E-1,1.089728013E1
1.027475554E1,-1.395090983E0,-1.047474422E1,-4.429265857E-2,1.056733207E1
1.028469154E1,-1.140549261E0,-1.041587913E1,-6.187394965E-1,1.049639125E1
1.029462854E1,-1.281664209E0,-1.029737478E1,-1.280076544E0,1.045548595E1
1.030456454E1,-1.434224936E0,-1.022555928E1,-1.829298493E0,1.048643870E1
1.031450054E1,-1.767893373E0,-1.020223590E1,-2.054398170E0,1.055611748E1
1.032443654E1,-2.137930323E0,-1.024534859E1,-1.969307148E0,1.064969880E1
1.033437246E1,-2.169521513E0,-1.041183987E1,-1.720478302E0,1.077373096E1
1.034430846E1,-1.900100673E0,-1.070717338E1,-1.726909654E0,1.101072937E1
1.035424446E1,-1.130015940E0,-1.086726079E1,-2.454432505E0,1.119814860E1
1.036418046E1,-2.216312541E-1,-1.082321839E1,-3.838137205E0,1.148575091E1
1.037411646E1,1.530499926E-1,-1.061725841E1,-5.398548270E0,1.191192360E1
1.038405246E1,-9.170597613E-2,-1.029726134E1,-6.451908383E0,1.215191849E1
1.039398846E1,-7.973581937E-1,-1.034265094E1,-6.905157643E0,1.246143694E1
1.040392446E1,-1.605912636E0,-1.052281652E1,-6.736255556E0,1.259705370E1
1.041386046E1,-2.225126342E0,-1.055533990E1,-5.917198638E0,1.230364285E1
1.042379646E1,-2.332161086E0,-1.063031875E1,-5.061825832E0,1.200269690E1
1.043373246E1,-1.878284712E0,-1.068988199E1,-4.775743205E0,1.185787728E1
1.044366846E1,-6.076052284E-1,-1.033481333E1,-5.415472451E0,1.168353083E1
1.045360446E1,7.117955947E-1,-9.690784044E0,-6.638313525E0,1.176797157E1
1.046354046E1,1.412868858E0,-8.958880459E0,-7.770916858E0,1.194340346E1
1.047347646E1,1.442074238E0,-8.489386464E0,-8.396777678E0,1.202726636E1
1.048341246E1,1.239224387E0,-8.154969583E0,-8.560286878E0,1.188771288E1
1.049334846E1,9.187987232E-1,-7.801098431E0,-8.495311448E0,1.157029146E1
1.050328446E1,6.797119224E-1,-7.525854787E0,-8.213891975E0,1.116102683E1
1.051322046E1,8.609457868E-1,-7.154206930E0,-7.918084844E0,1.070607174E1
1.052315646E1,1.112060895E0,-6.738023170E0,-7.682078941E0,1.027871454E1
1.053309246E1,1.366773795E0,-6.550338657E0,-7.857466759E0,1.032060032E1
1.054302946E1,1.598811777E0,-6.516627705E0,-8.355050778E0,1.071585317E1
1.055296546E1,1.779469691E0,-6.411042777E0,-8.676748211E0,1.093407250E1
1.056290146E1,2.572949134E0,-6.064836740E0,-8.698879922E0,1.091204948E1
1.057283746E1,4.461236678E0,-5.429156690E0,-8.550417362E0,1.106743024E1
1.058277346E1,6.876640188E0,-4.455695856E0,-8.383987479E0,1.172316731E1
1.059270946E1,9.445918440E0,-3.242745056E0,-8.101908440E0,1.286008130E1
1.060264546E1,1.165840778E1,-2.059409672E0,-7.405835423E0,1.396445625E1
1.061258146E1,1.258350980E1,-1.099926607E0,-5.861888071E0,1.392538291E1
1.062251746E1,1.261774174E1,-7.387440960E-1,-3.981249855E0,1.325154707E1
1.063245346E1,1.204244706E1,-8.843464901E-1,-1.877601172E0,1.221998306E1
1.064238946E1,1.163359453E1,-8.656179314E-1,9.280700684E-3,1.166575768E1
1.065232546E1,1.139676710E1,-8.184596255E-1,9.399054176E-1,1.146471101E1
1.066226146E1,1.105813964E1,-8.214096920E-1,1.391868875E0,1.117561923E1
1.067219746E1,1.123243344E1,-7.895176622E-1,1.600510393E0,1.137332549E1
1.068213346E1,1.195383250E1,-9.321145874E-1,1.048848985E0,1.203590600E1
1.069206946E1,1.218093953E1,-1.326563955E0,4.298779392E-1,1.226049978E1
1.070200546E1,1.185953095E1,-1.967944747E0,9.173334110E-1,1.205664885E1
1.071194146E1,1.160465199E1,-2.610687356E0,2.866384050E0,1.223518671E1
1.072187746E1,1.136501438E1,-3.100518259E0,5.839164037E0,1.314810260E1
1.073181346E1,1.114636009E1,-3.260223261E0,9.030712334E0,1.471136174E1
1.074174946E1,1.143491316E1,-3.036570770E0,1.168301169E1,1.662741000E1
1.075168546E1,1.100074337E1,-2.901329935E0,1.372453546E1,1.782686018E1
1.076162146E1,9.814691806E0,-2.921533234E0,1.494055167E1,1.811307858E1
1.077155746E1,8.790605194E0,-2.864678417E0,1.495518257E1,1.758233795E1
1.078149346E1,8.123767086E0,-3.029830100E0,1.408886144E1,1.654301903E1
1.079143046E1,7.148514081E0,-3.525551780E0,1.276726674E1,1.505104212E1
1.080136646E1,5.881452854E0,-4.148444554E0,1.176917860E1,1.379545740E1
1.081130246E1,4.561455030E0,-4.725875226E0,1.130426532E1,1.307391231E1
1.082123846E1,3.602079554E0,-5.573539063E0,1.129543602E1,1.310061791E1
1.083117446E1,2.509985731E0,-6.294587291E0,1.149088271E1,1.334024899E1
1.084111046E1,1.197355399E0,-6.484258103E0,1.161040214E1,1.335217963E1
1.085104646E1,1.362670219E-1,-6.569337430E0,1.147847960E1,1.322612025E1
1.086098246E1,-5.136246854E-1,-6.959749587E0,1.112897748E1,1.313605970E1
1.087091846E1,-1.091461154E0,-7.503510822E0,1.051205296E1,1.296137414E1
1.088085446E1,-1.499433669E0,-8.278855126E0,9.751615552E0,1.287950890E1
1.089079046E1,-1.702332053E0,-9.223361133E0,8.975817504E0,1.298205010E1
1.090072646E1,-1.966116323E0,-1.003301280E1,8.459557478E0,1.326993113E1
1.091066246E1,-2.347349521E0,-1.050972928E1,8.304059549E0,1.359859788E1
1.092059846E1,-2.795298280E0,-1.086510083E1,8.462613233E0,1.405275529E1
1.093053446E1,-3.264069559E0,-1.098832739E1,8.755413142E0,1.442410303E1
1.094047046E1,-3.464384058E0,-1.113108482E1,8.994974152E0,1.472455657E1
1.095040646E1,-3.458801136E0,-1.134804576E1,9.137282517E0,1.497435740E1
1.096034246E1,-3.314942089E0,-1.170114157E1,8.978303740E0,1.511672892E1
1.097027846E1,-2.943468479E0,-1.238191184E1,8.553069659E0,1.533397365E1
1.098021446E1,-2.712363127E0,-1.279777400E1,7.955266703E0,1.531098303E1
1.099015046E1,-2.479957355E0,-1.317672152E1,7.313703185E0,1.527306233E1
1.100008646E1,-2.386499553E0,-1.362388851E1,6.602019272E0,1.532619903E1
1.101002246E1,-2.580982039E0,-1.357468770E1,6.189720987E0,1.514088043E1
1.101995946E1,-2.939184809E0,-1.314748778E1,6.216354470E0,1.483705851E1
1.102989546E1,-3.433847558E0,-1.251273978E1,6.326083903E0,1.443534909E1
1.103983146E1,-3.593530340E0,-1.188616151E1,6.219026062E0,1.388778531E1
1.104976746E1,-3.332515604E0,-1.147939176E1,5.717345484E0,1.325028811E1
1.105970346E1,-3.030608657E0,-1.135661193E1,4.834924629E0,1.270959163E1
1.106963946E1,-2.753387192E0,-1.136097863E1,3.904990468E0,1.232484998E1
1.107957546E1,-2.298610055E0,-1.150260521E1,3.091164469E0,1.213049185E1
1.108951146E1,-1.894697261E0,-1.181260938E1,2.243448007E0,1.217212706E1
1.109944746E1,-1.836810704E0,-1.191522685E1,1.316253852E0,1.212761430E1
1.110938346E1,-1.895300402E0,-1.182799107E1,5.247648007E-1,1.199036757E1
1.111931946E1,-2.029815305E0,-1.168743804E1,8.136809886E-2,1.186267165E1
1.112925546E1,-2.181358324E0,-1.174114237E1,-3.312085140E-1,1.194665005E1
1.113919146E1,-2.255757565E0,-1.194113586E1,-7.511280602E-1,1.217552303E1
1.114912746E1,-2.205920139E0,-1.214694265E1,-1.208601934E0,1.240463695E1
1.115906346E1,-2.101498807E0,-1.230383046E1,-1.662905447E0,1.259229112E1
1.116899946E1,-2.131928156E0,-1.234264895E1,-2.165466031E0,1.271122905E1
1.117893546E1,-2.125456458E0,-1.236291540E1,-2.787064816E0,1.285017403E1
1.118887146E1,-2.140568002E0,-1.232514473E1,-3.387212505E0,1.296010928E1
1.119880746E1,-2.253575677E0,-1.222598648E1,-3.865847452E0,1.301914456E1
1.120874346E1,-2.338096595E0,-1.221869734E1,-4.215570298E0,1.313523099E1
1.121867946E1,-2.062506796E0,-1.219194633E1,-4.622959261E0,1.320110760E1
1.122861546E1,-1.546211687E0,-1.185456315E1,-5.199538286E0,1.303674179E1
1.123855146E1,-1.139565028E0,-1.127252195E1,-5.590187840E0,1.263402389E1
1.124848746E1,-7.117631426E-1,-1.091882505E1,-5.851680002E0,1.240844495E1
1.125842446E1,-2.156125689E-1,-1.062330560E1,-6.476742092E0,1.244384582E1
1.126836046E1,1.301838711E-1,-1.017766590E1,-7.448258142E0,1.261262782E1
1.127829646E1,2.600897071E-1,-9.709951217E0,-8.271537920E0,1.275810091E1
1.128823246E1,3.295473200E-1,-9.173378549E0,-8.462161828E0,1.248469696E1
1.129816846E1,2.560507429E-1,-8.516139815E0,-8.357765055E0,1.193492505E1
1.130810446E1,2.311404347E-1,-7.915278180E0,-8.315276263E0,1.148254649E1
1.131804046E1,4.429599148E-1,-7.487030445E0,-8.304747766E0,1.119020437E1
1.132797646E1,6.723040849E-1,-7.197550585E0,-8.483484285E0,1.114568225E1
1.133791329E1,9.061710763E-1,-6.934676726E0,-8.649541116E0,1.112319418E1
1.134784929E1,1.247700511E0,-6.463144977E0,-9.008271890E0,1.115696921E1
1.135778529E1,1.405025695E0,-6.122837611E0,-9.220970791E0,1.115748807E1
1.136772129E1,1.772081734E0,-5.865456626E0,-8.943170160E0,1.084085548E1
1.137765729E1,2.878549182E0,-5.596329170E0,-8.748383034E0,1.077678761E1
1.138759329E1,4.267048892E0,-5.182987157E0,-8.537295626E0,1.086077708E1
1.139752929E1,5.901933312E0,-4.442665044E0,-8.036893249E0,1.091612306E1
1.140746529E1,7.348311101E0,-3.408257219E0,-7.155171720E0,1.080788488E1
1.141740129E1,8.566622921E0,-2.444757117E0,-6.088279982E0,1.079032061E1
1.142733729E1,9.384085888E0,-1.923774295E0,-4.865115557E0,1.074389710E1
1.143727329E1,9.808773254E0,-1.642392830E0,-3.369087306E0,1.050048743E1
1.144720929E1,1.028211355E1,-1.480388119E0,-1.940984405E0,1.056791505E1
1.145714529E1,1.087111294E1,-1.436886004E0,-8.069274545E-1,1.099531126E1
1.146708129E1,1.144181756E1,-1.204799343E0,-3.119021773E-2,1.150511639E1
1.147701729E1,1.202014928E1,-9.458882886E-1,1.097031212E-1,1.205780777E1
1.148695329E1,1.231629438E1,-9.524605590E-1,-1.986152977E-1,1.235466456E1
1.149688929E1,1.246912774E1,-1.097754512E0,-4.734315097E-1,1.252630627E1
1.150682629E1,1.233831500E1,-1.310719901E0,-2.606086475E-1,1.241047624E1
1.151676229E1,1.197534090E1,-1.513574283E0,6.974348330E-1,1.209074490E1
1.152669829E1,1.196500536E1,-1.381070530E0,2.093140651E0,1.222497227E1
1.153663429E1,1.217065661E1,-1.154175466E0,3.311566492E0,1.266583894E1
1.154657029E1,1.219780991E1,-1.036663680E0,4.414311018E0,1.301335391E1
1.155650629E1,1.199987582E1,-9.710178673E-1,5.696040570E0,1.331858752E1
1.156644229E1,1.164984629E1,-7.425016630E-1,7.107554335E0,1.366702440E1
1.157637829E1,1.120639111E1,-2.376355219E-1,8.483898268E0,1.405760300E1
1.158631429E1,1.118861675E1,2.416543132E-1,9.722556644E0,1.482469727E1
1.159625029E1,1.112948502E1,2.051694417E-1,1.072671711E1,1.545865426E1
1.160618629E1,1.039121090E1,-2.656302363E-1,1.147493618E1,1.548295785E1
1.161612229E1,9.374836178E0,-9.406842667E-1,1.194610482E1,1.521452795E1
1.162605829E1,8.206864207E0,-1.617892119E0,1.182945872E1,1.448814303E1
1.163599429E1,6.916755595E0,-2.242989293E0,1.109547996E1,1.326582769E1
1.164593029E1,5.458631335E0,-2.887317082E0,1.013275812E1,1.186617222E1
1.165586629E1,4.268784930E0,-3.664807899E0,9.293492053E0,1.086380855E1
1.166580229E1,3.177437212E0,-4.661912534E0,9.022767722E0,1.064142251E1
1.167573829E1,2.070399075E0,-5.675309266E0,9.135725988E0,1.095249638E1
1.168567429E1,1.053526758E0,-6.556862980E0,9.333886957E0,1.145529644E1
1.169561029E1,2.235910946E-1,-7.762039030E0,9.220472023E0,1.205472303E1
1.170554629E1,-5.523022628E-1,-9.180905085E0,9.062286129E0,1.291197451E1
1.171548229E1,-1.349256706E0,-1.034512431E1,9.234567906E0,1.393267150E1
1.172541829E1,-1.861012037E0,-1.131894300E1,9.642164446E0,1.498509832E1
1.173535429E1,-2.428391930E0,-1.220389336E1,1.007831002E1,1.601263355E1
1.174529129E1,-3.141846380E0,-1.256301531E1,1.053818183E1,1.669592252E1
1.175522729E1,-3.491298206E0,-1.281434384E1,1.089106480E1,1.717590940E1
1.176516329E1,-3.786305439E0,-1.331139459E1,1.099326712E1,1.767431065E1
1.177509929E1,-4.413432766E0,-1.360600305E1,1.092565576E1,1.799921280E1
1.178503529E1,-4.881869000E0,-1.388203139E1,1.061329283E1,1.814346783E1
1.179497129E1,-5.312001877E0,-1.413519477E1,1.003620538E1,1.813136823E1
1.180490729E1,-5.739939710E0,-1.408757739E1,9.252591949E0,1.780497690E1
1.181484329E1,-6.047789183E0,-1.401554203E1,8.220432086E0,1.733743568E1
1.182477929E1,-6.078228033E0,-1.371990096E1,7.214585863E0,1.665024887E1
1.183471529E1,-6.050310502E0,-1.325954616E1,6.415801241E0,1.592433129E1
1.184465129E1,-5.891652737E0,-1.293052568E1,5.619236807E0,1.528024504E1
1.185458729E1,-5.385658668E0,-1.273405923E1,4.790882816E0,1.463263961E1
1.186452329E1,-4.747996413E0,-1.239936929E1,4.124332391E0,1.390316318E1
1.187445929E1,-4.069410079E0,-1.197997423E1,3.695861877E0,1.318101954E1
1.188439529E1,-3.431817405E0,-1.163501073E1,3.317831199E0,1.257612219E1
1.189433129E1,-3.006463749E0,-1.117706382E1,2.854374454E0,1.192111712E1
1.190426729E1,-2.844374838E0,-1.057141858E1,2.341736194E0,1.119504745E1
1.191420329E1,-2.790479590E0,-9.970447598E0,1.897690451E0,1.052605485E1
1.192413929E1,-2.843616162E0,-9.502686718E0,1.446998763E0,1.002402181E1
1.193407529E1,-2.804746796E0,-9.215606555E0,1.081730218E0,9.693510666E0
1.194401129E1,-2.530397484E0,-9.193792933E0,7.215411490E-1,9.562915954E0
1.195394729E1,-2.053478110E0,-9.515019080E0,2.286378264E-2,9.734109266E0
1.196388329E1,-1.523669501E0,-9.853475218E0,-8.842709148E-1,1.000971916E1
1.197381929E1,-1.206878759E0,-1.004765423E1,-1.778958060E0,1.027504763E1
1.198375629E1,-1.258215266E0,-1.006234127E1,-2.325115483E0,1.040384446E1
1.199369229E1,-1.695779955E0,-1.014508405E1,-2.509452465E0,1.058752812E1
1.200362829E1,-2.139764741E0,-1.034197851E1,-2.559766002E0,1.086680793E1
1.201356429E1,-2.341056747E0,-1.050548771E1,-2.641236134E0,1.108250635E1
1.202350029E1,-2.097188386E0,-1.063599639E1,-2.995444671E0,1.124701326E1
1.203343629E1,-1.526874945E0,-1.072879171E1,-3.809417728E0,1.148694833E1
1.204337229E1,-8.359062552E-1,-1.076483511E1,-4.840776815E0,1.183273149E1
1.205330829E1,-3.064163196E-1,-1.082170396E1,-5.846158476E0,1.230368792E1
1.206324429E1,1.538256258E-2,-1.076768972E1,-6.450189886E0,1.255182569E1
1.207318029E1,1.170583338E-1,-1.030797110E1,-6.780631245E0,1.233875727E1
1.208311629E1,1.898962221E-1,-9.618769151E0,-6.776045274E0,1.176739436E1
1.209305229E1,4.718834594E-1,-8.959377472E0,-6.441401521E0,1.104467167E1
1.210298829E1,5.392542011E-1,-8.566552169E0,-6.137208313E0,1.055186889E1
1.211292429E1,3.712312433E-1,-8.416909642E0,-5.793758068E0,1.022496030E1
1.212286029E1,1.161578625E-1,-8.380201991E0,-5.533664560E0,1.004304344E1
1.213279629E1,3.439858496E-2,-8.324917152E0,-5.556180434E0,1.000882460E1
1.214273229E1,-4.933822095E-2,-8.241146432E0,-5.917143089E0,1.014551680E1
1.215266829E1,-9.644923747E-2,-8.158985451E0,-6.444643217E0,1.039768110E1
1.216260429E1,9.657202899E-2,-8.023676788E0,-6.913679960E0,1.059186886E1
1.217254029E1,6.490795290E-1,-7.595441916E0,-7.402389075E0,1.062578967E1
1.218247629E1,1.528831716E0,-7.045372120E0,-8.164092994E0,1.089160269E1
1.219241229E1,2.663710200E0,-6.445002236E0,-8.930432585E0,1.133075602E1
1.220234829E1,3.519481201E0,-5.701075022E0,-9.420219342E0,1.155982425E1
1.221228429E1,4.007847669E0,-5.123377132E0,-9.557022554E0,1.156064515E1
1.222222029E1,4.148901806E0,-4.805662238E0,-9.222737820E0,1.119672580E1
1.223215629E1,4.171194316E0,-4.625971454E0,-8.798446310E0,1.078012669E1
1.224209329E1,4.641985223E0,-4.494846766E0,-7.798794628E0,1.012782661E1
1.225202929E1,6.125520313E0,-4.016390159E0,-6.517660908E0,9.804758677E0
1.226196529E1,8.010503595E0,-3.183118074E0,-5.430748302E0,1.018790634E1
1.227190129E1,9.821735362E0,-2.057715880E0,-4.479902160E0,1.098954974E1
1.228183729E1,1.105312974E1,-9.380881760E-1,-3.542396439E0,1.164475243E1
1.229177329E1,1.173071796E1,-9.101454288E-2,-2.975964380E0,1.210266051E1
1.230170929E1,1.189379914E1,-1.129179204E-1,-3.258098967E0,1.233249437E1
1.231164529E1,1.131062943E1,-9.220006585E-1,-3.773622243E0,1.195912405E1
1.232158129E1,1.032761892E1,-1.719571837E0,-3.690619848E0,1.110123032E1
1.233151729E1,9.639385264E0,-2.219552191E0,-2.794056916E0,1.027866306E1
1.234145304E1,9.486578808E0,-2.616417043E0,-1.572577659E0,9.965631747E0
1.235138904E1,9.629261979E0,-2.553395460E0,-4.032853872E-1,9.970213325E0
1.236132504E1,9.790986609E0,-1.957942500E0,4.162018865E-1,9.993506973E0
1.237126104E1,1.042430146E1,-1.313378776E0,8.042739880E-1,1.053745137E1
1.238119704E1,1.133733483E1,-8.874222717E-1,1.073544701E0,1.142257316E1
1.239113304E1,1.184223254E1,-9.942742905E-1,2.046286912E0,1.205878697E1
1.240106904E1,1.185753120E1,-1.360530723E0,4.140955440E0,1.263327360E1
1.241100504E1,1.140128700E1,-1.562500568E0,6.859902533E0,1.339735108E1
1.242094104E1,1.057724591E1,-1.623254308E0,9.359891279E0,1.421691423E1
1.243087704E1,9.703095356E0,-1.462053589E0,1.095595136E1,1.470783908E1
1.244081304E1,8.902054294E0,-9.526473776E-1,1.165092100E1,1.469347025E1
1.245074904E1,8.074120132E0,-3.069776523E-1,1.134997651E1,1.393225100E1
1.246068504E1,7.521445987E0,6.686466515E-2,1.026751305E1,1.272786097E1
1.247062104E1,6.927451322E0,-4.226440564E-1,9.306817857E0,1.160969717E1
1.248055704E1,6.397339243E0,-1.803473973E0,8.902533765E0,1.111006639E1
1.249049304E1,5.836744459E0,-3.907683696E0,9.275096127E0,1.163464593E1
1.250043004E1,4.992933937E0,-5.765880883E0,1.061704674E1,1.307273702E1
1.251036604E1,4.056843828E0,-7.111136924E0,1.250307316E1,1.494500213E1
1.252030204E1,2.975159803E0,-8.324438850E0,1.439656297E1,1.689404876E1
1.253023804E1,1.722602595E0,-9.151839745E0,1.589632818E1,1.842326736E1
1.254017404E1,7.277017754E-1,-9.770776877E0,1.658266383E1,1.926090264E1
1.255011004E1,-2.700869840E-1,-1.030358335E1,1.643920122E1,1.940319855E1
1.256004604E1,-1.177714017E0,-1.071989107E1,1.569685042E1,1.904453171E1
1.256998204E1,-1.667334128E0,-1.132587195E1,1.444478847E1,1.843115006E1
1.257991804E1,-2.048857348E0,-1.194300931E1,1.316918914E1,1.789583276E1
1.258985404E1,-2.229932168E0,-1.240328341E1,1.228793539E1,1.760134634E1
1.259979004E1,-2.390521268E0,-1.264448924E1,1.185635357E1,1.749773757E1
1.260972604E1,-2.877031245E0,-1.256302350E1,1.176893770E1,1.745321640E1
1.261966204E1,-3.384743811E0,-1.229201558E1,1.155555993E1,1.720700738E1
1.262959804E1,-3.425332258E0,-1.197581569E1,1.089209041E1,1.654662189E1
1.263953404E1,-3.198376676E0,-1.193465130E1,1.005722729E1,1.593152020E1
1.264947004E1,-3.226023481E0,-1.208204440E1,9.067779588E0,1.544693015E1
1.265940604E1,-3.328388346E0,-1.255994786E1,7.967699053E0,1.524187283E1
1.266934204E1,-3.594398652E0,-1.295208202E1,6.780147096E0,1.505478412E1
1.267927804E1,-3.858004582E0,-1.301003845E1,5.687912940E0,1.471385923E1
1.268921404E1,-3.842424676E0,-1.297268995E1,4.798290653E0,1.435543469E1
1.269915004E1,-3.555350946E0,-1.273069124E1,4.148771998E0,1.385363955E1
1.270908604E1,-3.210435973E0,-1.218178504E1,3.752562912E0,1.314475234E1
1.271902204E1,-2.996991844E0,-1.166247510E1,3.444053873E0,1.252424819E1
1.272895904E1,-2.908183164E0,-1.124543882E1,3.131412023E0,1.203009413E1
1.273889504E1,-2.777163433E0,-1.080650354E1,2.955712548E0,1.154250372E1
1.274883104E1,-2.500334609E0,-1.068616083E1,2.845549836E0,1.133767438E1
1.275876704E1,-2.350730089E0,-1.088855050E1,2.635012650E0,1.144682295E1
1.276870304E1,-2.313773932E0,-1.109024553E1,2.145402480E0,1.153038800E1
1.277863904E1,-2.137381269E0,-1.130110431E1,1.516242660E0,1.160096328E1
1.278857504E1,-2.014074309E0,-1.152356865E1,8.028542840E-1,1.172577096E1
1.279851104E1,-1.863394485E0,-1.181576337E1,1.001815152E-1,1.196221298E1
1.280844704E1,-1.681402821E0,-1.218421748E1,-4.001799309E-1,1.230619417E1
1.281838304E1,-1.706836455E0,-1.255902634E1,-7.180866140E-1,1.269480530E1
1.282831904E1,-1.935502056E0,-1.279686768E1,-9.477941886E-1,1.297706841E1
1.283825504E1,-2.212524569E0,-1.279859144E1,-1.015825081E0,1.302808921E1
1.284819104E1,-2.286898813E0,-1.278431605E1,-8.398607272E-1,1.301437701E1
1.285812704E1,-2.178882760E0,-1.292342950E1,-8.454933500E-1,1.313306587E1
1.286806304E1,-1.953375240E0,-1.296806948E1,-1.041534703E0,1.315565640E1
1.287799904E1,-1.497884011E0,-1.296297772E1,-1.560221908E0,1.314217411E1
1.288793504E1,-1.173971507E0,-1.291858800E1,-2.301556174E0,1.317441786E1
1.289787104E1,-7.730279294E-1,-1.268149510E1,-3.108363176E0,1.307974816E1
1.290780704E1,-3.581258789E-1,-1.231579737E1,-3.931857255E0,1.293315973E1
1.291774304E1,-1.788926393E-2,-1.185986307E1,-4.694274826E0,1.275511224E1
1.292767904E1,2.079898462E-1,-1.143175567E1,-5.380826529E0,1.263651817E1
1.293761504E1,3.015145987E-1,-1.101838091E1,-5.943908134E0,1.252300574E1
1.294755104E1,3.904922640E-1,-1.065464667E1,-6.199482329E0,1.233318941E1
1.295748704E1,4.259518263E-1,-1.028831510E1,-6.107133744E0,1.197196497E1
1.296742304E1,3.447249377E-1,-9.784043625E0,-6.085554594E0,1.152737263E1
1.297735904E1,2.150798875E-1,-9.561177585E0,-6.214129019E0,1.140516443E1
1.298729604E1,1.378253049E-1,-9.474590846E0,-6.304616436E0,1.138134684E1
1.299723204E1,-1.431427628E-1,-9.322018279E0,-6.246068265E0,1.122202671E1
1.300716804E1,-3.635763609E-1,-9.042716083E0,-6.081153395E0,1.090336318E1
1.301710404E1,-1.596254790E-1,-8.834271616E0,-6.100897688E0,1.073735479E1
1.302704004E1,5.516356802E-1,-8.482636439E0,-6.264717960E0,1.055964554E1
1.303697604E1,1.662493218E0,-7.784038010E0,-6.717954356E0,1.041566331E1
1.304691204E1,2.514202158E0,-7.047457822E0,-7.629771504E0,1.068650024E1
1.305684804E1,2.752119516E0,-6.561747744E0,-8.924164955E0,1.141365040E1
1.306678404E1,3.080148899E0,-6.307522502E0,-9.731993465E0,1.199932724E1
1.307672004E1,3.724246016E0,-5.857586274E0,-9.909525458E0,1.209876110E1
1.308665604E1,4.422433385E0,-5.579072868E0,-9.691395078E0,1.202526963E1
1.309659204E1,5.237157517E0,-5.376470354E0,-9.237468710E0,1.190231408E1
1.310652804E1,6.040881282E0,-5.225754277E0,-8.723055235E0,1.182761375E1
1.311646404E1,6.868530099E0,-5.195556917E0,-8.050633036E0,1.178911403E1
1.312640004E1,8.103167930E0,-4.778093786E0,-7.424309701E0,1.198381764E1
1.313633604E1,9.735346844E0,-3.810799425E0,-6.778072504E0,1.245959218E1
1.314627204E1,1.145833243E1,-2.757104852E0,-5.812966172E0,1.314098874E1
1.315620804E1,1.293616941E1,-1.730231750E0,-4.296318884E0,1.374032521E1
1.316614404E1,1.376682603E1,-8.324710160E-1,-2.918779780E0,1.409743886E1
1.317608004E1,1.410100376E1,-5.570741755E-1,-2.170460138E0,1.427793879E1
1.318601604E1,1.428314687E1,-2.763674784E-1,-9.422074664E-1,1.431685784E1
1.319595204E1,1.384076875E1,-5.168463551E-2,-9.064938426E-3,1.384086822E1
1.320588804E1,1.325356680E1,5.332412168E-2,5.411101073E-1,1.326471547E1
1.321582404E1,1.261091804E1,2.373415531E-1,8.099925649E-1,1.263913260E1
1.322576004E1,1.199974718E1,5.528937086E-2,9.040280718E-1,1.203387951E1
1.323569604E1,1.165941233E1,-6.559662335E-1,1.213591948E0,1.174074073E1
1.324563204E1,1.131662867E1,-1.395046544E0,2.126250510E0,1.159884393E1
1.325556904E1,1.078759365E1,-1.752965139E0,3.379063826E0,1.143954264E1
1.326550504E1,1.003894188E1,-1.446782708E0,4.822620918E0,1.123081506E1
1.327544104E1,9.377918245E0,-4.310260400E-1,6.296598734E0,1.130390595E1
1.328537704E1,9.211207695E0,3.567921290E-1,7.329596502E0,1.177695346E1
1.329531304E1,9.167147171E0,5.696872044E-1,8.186157462E0,1.230342655E1
1.330524904E1,8.857267545E0,3.988024731E-1,8.855886433E0,1.253143872E1
1.331518504E1,7.995393221E0,-1.032518882E-1,9.516680859E0,1.242997137E1
1.332512104E1,6.909431373E0,-7.413966854E-1,1.047953309E1,1.257420076E1
1.333505704E1,5.737413713E0,-1.474335812E0,1.162754617E1,1.304957517E1
1.334499317E1,4.448830056E0,-2.066875835E0,1.276434547E1,1.367452302E1
1.335492917E1,3.060701060E0,-2.562105473E0,1.327132479E1,1.385858352E1
1.336486517E1,1.550352393E0,-2.941110297E0,1.315564114E1,1.356925260E1
1.337480117E1,3.592236936E-2,-3.162913021E0,1.252496748E1,1.291820883E1
1.338473717E1,-1.321222816E0,-3.216527310E0,1.135888650E1,1.187922473E1
1.339467317E1,-2.365197562E0,-3.046499050E0,1.009966639E1,1.081103959E1
1.340460917E1,-3.284052418E0,-2.933536691E0,8.693421546E0,9.745061107E0
1.341454517E1,-4.169295141E0,-3.053815671E0,7.315764329E0,8.957076523E0
1.342448117E1,-4.806772040E0,-3.009264858E0,6.228437741E0,8.423429771E0
1.343441717E1,-5.509370549E0,-3.010458859E0,5.183720983E0,8.141682235E0
1.344435317E1,-6.150807182E0,-3.182983881E0,4.312597532E0,8.158572967E0
1.345428917E1,-6.242907845E0,-3.130779355E0,3.608439571E0,7.861075872E0
1.346422517E1,-5.801036097E0,-3.057424572E0,2.868535826E0,7.157399151E0
1.347416117E1,-5.843303280E0,-3.185071629E0,2.431181636E0,7.085161865E0
1.348409717E1,-5.862373390E0,-3.202617077E0,1.690163412E0,6.890633516E0
1.349403317E1,-5.432634029E0,-3.204936667E0,8.915343261E-1,6.370240576E0
1.350397017E1,-5.064212081E0,-3.004863659E0,5.197695243E-1,5.911481199E0
1.351390617E1,-4.698473420E0,-2.803436143E0,4.014125240E-1,5.485985663E0
1.352384217E1,-4.253669878E0,-2.530938644E0,2.062348044E-1,4.953977255E0
1.353377817E1,-3.753335329E0,-2.179624479E0,7.952622592E-2,4.341038284E0
1.354371417E1,-4.161248787E0,-1.681206062E0,3.936813354E-2,4.488206228E0
1.355365017E1,-4.378917822E0,-1.497030756E0,1.248667055E-1,4.629429130E0
1.356358617E1,-4.354244910E0,-1.598325874E0,2.911527479E-1,4.647457828E0
1.357352217E1,-4.314209610E0,-1.970202065E0,2.324092805E-1,4.748485528E0
1.358345817E1,-3.657177283E0,-2.330430018E0,2.976022267E-1,4.346770851E0
1.359339417E1,-2.852929607E0,-2.095806689E0,1.425982701E0,3.816417126E0
1.360333017E1,-2.791853685E0,-1.520319924E0,-5.002000630E-2,3.179358689E0
1.361326617E1,-2.427969761E0,-1.634533587E0,-1.009728189E0,3.096173158E0
1.362320217E1,-1.970939691E0,-1.516686172E0,-5.483062756E-1,2.546680188E0
1.363313817E1,-2.154867660E0,-1.458231557E0,8.899462223E-4,2.601902131E0
1.364307417E1,-2.201200705E0,-1.792723575E0,-1.099919736E-2,2.838884172E0
1.365301017E1,-1.888274095E0,-2.051410535E0,-2.474442261E-1,2.799123592E0
1.366294617E1,-1.301319478E0,-1.915771796E0,-6.073099440E-1,2.394251308E0
1.367288217E1,-7.026561043E-1,-1.621368873E0,-5.444517910E-2,1.767915977E0
1.368281817E1,-5.052324691E-1,-1.275285628E0,5.998822260E-1,1.497154623E0
1.369275417E1,-1.227027387E0,-5.445982638E-1,8.330674320E-1,1.579931905E0
1.370269017E1,-3.024135497E0,1.866954562E-1,3.701889771E-1,3.052423721E0
1.371262617E1,-3.856494831E0,5.203913757E-1,-7.337787867E-2,3.892138728E0
1.372256217E1,-3.123267729E0,7.968661505E-1,-4.638385677E-1,3.256523174E0
1.373249817E1,-2.205617984E0,1.224863333E0,-6.637344056E-1,2.608751471E0
1.374243417E1,-1.425618419E0,1.291722443E0,-3.649861246E-1,1.958098470E0
1.375237017E1,-5.032882699E-1,1.075956385E0,-8.931095660E-2,1.191200097E0
1.376230617E1,4.821055618E-1,8.282273993E-1,1.529432809E-1,9.704524949E-1
1.377224217E1,1.222381190E0,7.058033681E-1,3.232703340E-1,1.448060039E0
1.378217917E1,1.245548151E0,8.524269783E-1,3.227370679E-1,1.543431619E0
1.379211517E1,5.034512611E-1,1.084682769E0,6.103282768E-1,1.342572340E0
1.380205117E1,-6.784432228E-1,1.197793063E0,1.144098374E0,1.789959362E0
1.381198717E1,-1.865163852E0,1.150948387E0,1.887819182E0,2.892642330E0
1.382192317E1,-2.007981948E0,8.847360608E-1,2.363976663E0,3.225389134E0
1.383185917E1,-1.812824402E0,4.660379979E-1,2.479399531E0,3.106597135E0
1.384179517E1,-1.438890721E0,-2.597040832E-2,2.314099329E0,2.725093884E0
1.385173117E1,-1.111393435E0,-4.312859488E-1,1.976285216E0,2.308009140E0
1.386166717E1,-8.606730142E-1,-6.398008749E-1,1.714920523E0,2.022635805E0
1.387160317E1,-6.749669800E-1,-6.517470288E-1,1.275774747E0,1.583652683E0
1.388153917E1,-8.902708890E-1,-4.280810899E-1,5.662472874E-1,1.138627097E0
1.389147517E1,-1.247782810E0,-1.304724312E-1,-2.114329791E-1,1.272277054E0
1.390141117E1,-1.482073871E0,1.373551887E-1,-1.031006792E0,1.810630943E0
1.391134717E1,-1.564340979E0,2.829502738E-1,-1.650375448E0,2.291497911E0
1.392128317E1,-1.380775391E0,3.853584087E-1,-1.844111245E0,2.335762845E0
1.393121917E1,-1.069884782E0,4.502075386E-1,-1.586541980E0,1.965821897E0
1.394115517E1,-8.883801918E-1,4.861492038E-1,-1.267616127E0,1.622470665E0
1.395109117E1,-9.000653406E-1,5.440360540E-1,-1.004151700E0,1.454102294E0
1.396102717E1,-1.063553710E0,4.718948615E-1,-8.113678300E-1,1.418502382E0
1.397096317E1,-1.224361569E0,3.284141296E-1,-6.560979420E-1,1.427368768E0
1.398089917E1,-1.535415973E0,3.200110960E-1,-5.402499819E-1,1.658848804E0
1.399083517E1,-1.964420484E0,3.813495576E-1,-4.243482274E-1,2.045592027E0
1.400077117E1,-2.066444896E0,3.785352927E-1,-3.239135277E-1,2.125653652E0
1.401070717E1,-1.870518732E0,2.620546639E-1,-1.651750714E-1,1.895994668E0
1.402064317E1,-1.557856271E0,1.812397116E-1,-7.778083205E-2,1.570291009E0
1.403057917E1,-1.422363420E0,1.923973686E-1,-1.296725321E-1,1.441162521E0
1.404051517E1,-1.208503262E0,2.635152984E-1,-2.493135810E-2,1.237150767E0
1.405045117E1,-9.695292393E-1,3.062052351E-1,1.587694466E-1,1.029056038E0
1.406038817E1,-1.021320733E0,3.318142855E-1,7.863978803E-2,1.076745548E0
1.407032417E1,-1.241812949E0,3.016520083E-1,-1.656457722E-1,1.288616257E0
1.408026017E1,-1.501081122E0,1.774454534E-1,-4.908714151E-1,1.589240753E0
1.409019617E1,-1.722587392E0,5.393822551E-2,-6.200603825E-1,1.831581703E0
1.410013217E1,-1.855852454E0,7.467069805E-2,-5.510644072E-1,1.937378648E0
1.411006817E1,-2.047010651E0,1.597149414E-1,-4.690455133E-1,2.106125628E0
1.412000417E1,-2.155103888E0,1.821933925E-1,-3.991870737E-1,2.199322059E0
1.412994017E1,-2.021386690E0,2.925595880E-2,-3.554925853E-1,2.052616633E0
1.413987617E1,-1.861232769E0,-4.029433250E-2,-3.205689204E-1,1.889067359E0
1.414981217E1,-1.704630447E0,5.291788638E-2,-3.519971198E-1,1.741398069E0
1.415974817E1,-1.521882300E0,2.261059821E-1,-3.491676521E-1,1.577709637E0
1.416968417E1,-1.241394873E0,3.481736255E-1,-1.868407595E-1,1.302764589E0
1.417962017E1,-1.111422452E0,2.291015106E-1,2.401100636E-2,1.135043566E0
1.418955617E1,-1.221111613E0,1.581361932E-1,2.539299577E-1,1.257219571E0
1.419949217E1,-1.206591807E0,8.230248392E-2,3.855782640E-1,1.269373107E0
1.420942817E1,-1.637717688E0,1.809245467E-2,-2.891997778E-1,1.663154555E0
1.421936417E1,-2.969778610E0,2.523436081E-1,-4.284770048E0,5.219436431E0
1.422930017E1,-2.770696705E0,7.563847071E-1,-2.832255022E0,4.033676557E0
1.423923617E1,-1.430989818E0,6.412360740E-1,-3.096486604E-1,1.598373502E0
1.424917217E1,-1.108921963E0,6.949269623E-1,8.623339158E-1,1.567243180E0
1.425910817E1,-1.410919396E0,7.071757096E-1,8.953244913E-1,1.814496341E0
1.426904417E1,-1.767637558E0,6.386603755E-1,1.393192685E-1,1.884632449E0
1.427898017E1,-2.008840173E0,5.294010580E-1,-3.164045334E-1,2.101384342E0
1.428891617E1,-2.313805653E0,2.938196629E-1,-1.138955748E0,2.595620694E0
1.429885217E1,-2.157745660E0,2.107552868E-1,-1.919124590E0,2.895396918E0