"Time (s)","Linear Acceleration x (m/s^2)","Linear Acceleration y (m/s^2)","Linear Acceleration z (m/s^2)","Absolute acceleration (m/s^2)"
3.096666653E-3,-8.124989739E-1,1.290158313E0,2.945657676E-1,1.552878632E0
1.303166666E-2,-8.873388027E-1,1.169527330E0,-7.236163259E-2,1.469830103E0
2.296766665E-2,-8.498466021E-1,1.122450228E0,-3.267330551E-1,1.445298672E0
3.290266666E-2,-5.625040461E-1,1.232342214E0,-3.745135778E-1,1.405467379E0
4.283866665E-2,-4.207713394E-1,1.435971499E0,-4.803411645E-1,1.571556649E0
5.277366666E-2,-6.552878103E-1,1.923141627E0,-9.320286334E-1,2.235297118E0
6.270966664E-2,-1.270556107E0,2.264499153E0,-1.741180953E0,3.126336570E0
7.264466665E-2,-2.221587460E0,1.946533998E0,-2.460821173E0,3.844487780E0
8.258066667E-2,-2.548164541E0,2.079462552E0,-2.196102517E0,3.954765897E0
9.251566665E-2,-2.578852191E0,2.439767103E0,-8.812151599E-1,3.657797465E0
1.024516667E-1,-2.630163555E0,2.138357462E0,8.381691277E-2,3.390775462E0
1.123866666E-1,-2.406943320E0,1.691063006E0,-1.260554445E-1,2.944309802E0
1.223226667E-1,-1.086887901E0,1.385190185E0,-1.379790866E-1,1.766101749E0
1.322576666E-1,-3.415556006E-2,7.679703802E-1,-3.634746194E-2,7.695883608E-1
1.421936667E-1,1.143365280E0,5.109525079E-1,-9.352036715E-2,1.255827491E0
1.521286667E-1,1.754676473E0,3.277294207E-1,-1.002139088E0,2.047090338E0
1.620646667E-1,2.118096860E0,2.637094259E-2,-1.468799522E0,2.577673713E0
1.719996667E-1,2.190910774E0,-2.886472160E-1,-1.946660882E0,2.944978069E0
1.819356667E-1,2.141558228E0,-5.778472862E-1,-2.283716612E0,3.183636395E0
1.918706667E-1,2.189062470E0,-1.011186777E0,-2.227299167E0,3.282583552E0
2.018066666E-1,2.352033872E0,-1.794969198E0,-1.042462072E0,3.136989787E0
2.117416667E-1,2.952686030E0,-2.490247285E0,1.001625702E0,3.990355921E0
2.216776666E-1,3.590941193E0,-2.439456908E0,1.109103958E0,4.480616057E0
2.316126667E-1,3.365815204E0,-2.222121457E0,1.182664270E0,4.203002562E0
2.415486666E-1,2.063586484E0,-1.571445346E0,1.027914199E0,2.790060439E0
2.514836667E-1,7.530195614E-1,-1.348563811E0,4.126912183E-1,1.598742273E0
2.614196666E-1,1.680151371E-1,-1.177815759E0,-1.634472191E-2,1.189851334E0
2.713546666E-1,-5.673586969E-1,1.628636670E-1,3.377603191E-1,6.800753621E-1
2.812906667E-1,-9.193967472E-1,9.886305580E-1,1.037024161E0,1.702380648E0
2.912256666E-1,-7.875961210E-1,8.909098434E-1,1.073911321E0,1.602283846E0
3.011616667E-1,-7.739745936E-1,2.372127682E-1,5.145596552E-1,9.592070724E-1
3.110966666E-1,-1.074467830E0,-5.198180562E-1,4.253469318E-1,1.267127437E0
3.210326667E-1,-1.498749838E0,-1.160342816E0,8.068081713E-1,2.059996590E0
3.309686666E-1,-1.626311525E0,-1.303566563E0,1.201385300E0,2.405722677E0
3.409036667E-1,-7.229613646E-1,-7.521437216E-1,9.681585789E-1,1.423279434E0
3.508396666E-1,4.581925694E-1,4.184124264E-1,-6.131969208E-1,8.723645183E-1
3.607746667E-1,6.717435562E-1,1.278432599E0,-1.166560453E0,1.856473163E0
3.707106666E-1,7.493803275E-1,9.366713226E-1,-1.950569746E0,2.289900953E0
3.806456666E-1,2.617339624E-1,7.923412827E-1,-2.903642508E0,3.021166859E0
3.905816667E-1,-4.343377568E-1,9.577748010E-1,-3.286193669E0,3.450369645E0
4.005166666E-1,-6.509265914E-1,1.144018852E0,-3.288379943E0,3.542023039E0
4.104526667E-1,-5.633047492E-1,1.297192513E0,-1.957929052E0,2.415265374E0
4.203876666E-1,-9.539644629E-2,1.044922872E0,-9.447287858E-2,1.053512893E0
4.303236667E-1,-4.350136949E-1,4.258448222E-1,6.588153770E0,6.616218771E0
4.402586666E-1,1.564057828E0,-1.610614821E0,4.602038215E0,5.120460206E0
4.501946667E-1,3.476867863E0,-5.099236903E-1,3.074724437E0,4.669321436E0
4.601296667E-1,4.054837064E0,3.595942609E-1,2.500116801E0,4.777195376E0
4.700656667E-1,4.242666880E0,7.338186939E-1,4.648542291E-1,4.330681422E0
4.800006667E-1,2.991636672E0,1.618542768E0,9.527903420E-1,3.532333521E0
4.899366667E-1,1.994337471E0,1.734371871E0,1.154474258E0,2.884135667E0
4.998716667E-1,1.973811843E0,1.232643492E0,1.395612262E0,2.713498988E0
5.098076666E-1,2.585500183E0,1.024029602E0,1.390402978E0,3.109126607E0
5.197426667E-1,2.857162699E0,9.462259653E-1,1.433720321E0,3.333808066E0
5.296786666E-1,2.266644204E0,3.529905617E-1,1.368971179E0,2.671396708E0
5.396136667E-1,1.667362341E0,-3.302682817E-2,1.351171669E0,2.146358038E0
5.495496666E-1,1.006379050E0,-1.950878187E-1,1.364424968E0,1.706608785E0
5.594846666E-1,2.512087732E-1,-5.580788733E-1,1.116538693E0,1.273270014E0
5.694206667E-1,-6.862936214E-1,-1.154277938E0,5.626606053E-1,1.456002558E0
5.793556666E-1,-1.596314724E0,-1.632542172E0,4.659698778E-1,2.330352455E0
5.892916667E-1,-2.383321299E0,-2.033110065E0,8.676086891E-1,3.250615602E0
5.992266666E-1,-2.586391591E0,-2.065614006E0,7.056069016E-2,3.310764488E0
6.091626667E-1,-2.179215905E0,-1.682387200E0,-8.062965399E-1,2.868714479E0
6.190976666E-1,-1.802478485E0,-1.282127162E0,-7.608250827E-1,2.339152315E0
6.290336667E-1,-1.458006731E0,-9.278379339E-1,-5.059315038E-1,1.800731392E0
6.389686667E-1,-1.238944598E0,-7.274646708E-1,-1.423797011E-1,1.443766097E0
6.489046667E-1,-1.106608293E0,-4.429941210E-1,4.172327507E-1,1.262897016E0
6.588396667E-1,-9.831688200E-1,-7.919615060E-2,1.199944546E0,1.553306110E0
6.687762917E-1,-9.004324727E-1,-1.185230613E-3,1.913620021E0,2.114880996E0
6.787112917E-1,-9.878509048E-1,-5.753075480E-2,2.470729864E0,2.661515595E0
6.886472917E-1,-1.146931204E0,-1.499746495E-1,2.790922809E0,3.021124576E0
6.985822917E-1,-1.318612326E0,-2.314009282E-1,2.796884045E0,3.100781388E0
7.085182916E-1,-1.333498899E0,-1.738967782E-1,2.716129319E0,3.030811423E0
7.184532917E-1,-1.288641691E0,-1.499489218E-2,2.828164310E0,3.107947171E0
7.283892916E-1,-1.400811314E0,5.741848826E-2,2.835071626E0,3.162783638E0
7.383242917E-1,-1.888199835E0,4.855001628E-2,2.917973449E0,3.475949478E0
7.482602916E-1,-2.644233710E0,-1.301970273E-2,3.139929078E0,4.105033013E0
7.581952917E-1,-2.619474552E0,-1.949055317E-1,3.740187280E0,4.570408732E0
7.681312917E-1,-2.252640122E0,-5.310236603E-1,4.287124137E0,4.871940786E0
7.780662916E-1,-1.967436770E0,-7.814441192E-1,4.495677363E0,4.969162636E0
7.880022917E-1,-1.856177413E0,-9.037611464E-1,4.554936554E0,5.000962489E0
7.979372916E-1,-2.041627704E0,-1.192242301E0,4.209928027E0,4.828372332E0
8.078732917E-1,-2.352023931E0,-1.566377564E0,3.650990344E0,4.616848031E0
8.178082916E-1,-2.522002052E0,-1.875035706E0,3.288278201E0,4.548519185E0
8.277442917E-1,-2.501022242E0,-2.179195586E0,3.011030717E0,4.479990138E0
8.376792917E-1,-2.375432821E0,-2.422056179E0,2.670753756E0,4.317633941E0
8.476152917E-1,-2.236278297E0,-2.564036808E0,2.514113865E0,4.230365694E0
8.575502917E-1,-2.244338684E0,-2.700314940E0,2.421575831E0,4.265300271E0
8.674862917E-1,-2.324949715E0,-2.866750671E0,2.249573550E0,4.322526083E0
8.774212917E-1,-2.447537760E0,-3.040664991E0,1.910405222E0,4.345771828E0
8.873572916E-1,-2.388155485E0,-3.188244621E0,1.761456174E0,4.355561758E0
8.972922917E-1,-2.189143600E0,-3.386729525E0,1.751749211E0,4.396693289E0
9.072282916E-1,-2.021451156E0,-3.722024074E0,1.519694856E0,4.499911159E0
9.171632917E-1,-1.926291960E0,-3.925646927E0,1.100611462E0,4.509173993E0
9.270992916E-1,-1.758611065E0,-4.083730495E0,6.069877625E-1,4.487538499E0
9.370342917E-1,-1.598109673E0,-4.191317509E0,5.714483857E-2,4.486018560E0
9.469702917E-1,-1.469871755E0,-4.177667769E0,-3.504674882E-1,4.442550891E0
9.569052916E-1,-1.446538149E0,-4.253005634E0,-6.267145139E-1,4.535780045E0
9.668412917E-1,-1.444906483E0,-4.440994202E0,-9.393756598E-1,4.763676194E0
9.767762916E-1,-1.347954970E0,-4.615318996E0,-1.191924505E0,4.953668950E0
9.867122917E-1,-1.174952377E0,-4.861320130E0,-1.476297407E0,5.214633307E0
9.966472916E-1,-1.095290788E0,-4.938664759E0,-2.001727620E0,5.440311111E0
1.006583292E0,-1.109019612E0,-4.855260660E0,-2.404248776E0,5.530270586E0
1.016518292E0,-1.107594938E0,-4.863280701E0,-2.576173289E0,5.613816397E0
1.026454292E0,-1.259058142E0,-4.912129510E0,-2.547876273E0,5.675025747E0
1.036389292E0,-1.458633260E0,-5.133234369E0,-2.387266123E0,5.846088061E0
1.046325292E0,-1.614995116E0,-5.547547020E0,-2.324755880E0,6.227999443E0
1.056260292E0,-1.552439264E0,-5.753249143E0,-2.741127335E0,6.559247094E0
1.066196292E0,-1.221843684E0,-5.683197745E0,-3.420657409E0,6.744815469E0
1.076131292E0,-9.701354494E-1,-5.559703966E0,-3.864935287E0,6.840262842E0
1.086067292E0,-6.680976710E-1,-5.460867895E0,-4.077626587E0,6.847953800E0
1.096002292E0,-3.296825369E-1,-5.425914409E0,-4.186304106E0,6.861077162E0
1.105938292E0,-5.752783120E-3,-5.463170528E0,-4.328358117E0,6.970003537E0
1.115873292E0,2.643077423E-1,-5.427997772E0,-4.463628774E0,7.032567115E0
1.125809292E0,7.625134662E-1,-5.331380720E0,-4.633799121E0,7.104726698E0
1.135745292E0,1.389455291E0,-5.120355876E0,-4.603846174E0,7.024530582E0
1.145680292E0,1.775726596E0,-4.932212357E0,-4.484693953E0,6.898724775E0
1.155616292E0,1.758808701E0,-4.877619828E0,-4.461902091E0,6.840552134E0
1.165551292E0,1.565841082E0,-4.818541315E0,-4.443367002E0,6.738969433E0
1.175487292E0,1.453406873E0,-4.794999840E0,-4.642326701E0,6.830491359E0
1.185422292E0,1.308489919E0,-4.710176037E0,-4.903783194E0,6.924232361E0
1.195358292E0,1.565932591E0,-4.447788082E0,-5.000396739E0,6.873058362E0
1.205293292E0,2.290478332E0,-4.075408153E0,-4.957417365E0,6.814046487E0
1.215229292E0,3.029246255E0,-3.689327028E0,-4.791689147E0,6.763708426E0
1.225164292E0,3.569974247E0,-3.417921497E0,-4.559956974E0,6.724590031E0
1.235100292E0,3.822793819E0,-3.357408662E0,-4.224380005E0,6.612966954E0
1.245035292E0,3.892028068E0,-3.319145653E0,-3.885014040E0,6.423234733E0
1.254971292E0,3.819667313E0,-3.324698753E0,-3.949059178E0,6.421724735E0
1.264906292E0,3.640512718E0,-3.248288509E0,-4.251561372E0,6.471513361E0
1.274842292E0,3.780004479E0,-2.926605109E0,-4.430852206E0,6.518121094E0
1.284777292E0,4.286939950E0,-2.350315813E0,-4.190525211E0,6.439125725E0
1.294713292E0,5.123053781E0,-1.805468458E0,-3.791559747E0,6.624297828E0
1.304648292E0,5.892910473E0,-1.516829136E0,-3.511664059E0,7.025592426E0
1.314584292E0,6.204900944E0,-1.362089298E0,-3.232598675E0,7.127817139E0
1.324519292E0,6.280269215E0,-1.397640369E0,-3.055968323E0,7.122788948E0
1.334455292E0,6.308636981E0,-1.584294310E0,-2.940841325E0,7.138447781E0
1.344390292E0,6.109973152E0,-1.740171285E0,-2.476122751E0,6.818442043E0
1.354326292E0,6.021377310E0,-1.846079271E0,-1.673719872E0,6.516619644E0
1.364261292E0,6.283347774E0,-1.857544930E0,-6.655125439E-1,6.585881821E0
1.374197292E0,6.411034591E0,-1.630988566E0,4.534942585E-1,6.630772600E0
1.384132292E0,6.602872381E0,-1.466796851E0,1.405322149E0,6.908281047E0
1.394068292E0,7.019485327E0,-1.472588664E0,2.015890746E0,7.450201818E0
1.404003292E0,7.374363370E0,-1.249517094E0,2.402317441E0,7.855804043E0
1.413939292E0,7.548732018E0,-8.179056019E-1,2.947582580E0,8.144971929E0
1.423874292E0,7.686840913E0,-7.793418990E-1,3.996041556E0,8.698462228E0
1.433810292E0,7.910756528E0,-1.368577661E0,5.409332290E0,9.680596546E0
1.443745292E0,7.671824094E0,-2.206491558E0,6.979654679E0,1.060382334E1
1.453681292E0,6.983050157E0,-3.004536214E0,8.466316275E0,1.137843305E1
1.463616292E0,5.940217956E0,-3.700910947E0,9.507915882E0,1.180607452E1
1.473552292E0,4.802903814E0,-4.115866500E0,1.010783261E1,1.192377969E1
1.483487292E0,3.607832337E0,-4.234824302E0,1.025240618E1,1.166456273E1
1.493423292E0,2.619933558E0,-4.129626460E0,1.023993173E1,1.134786625E1
1.503358292E0,2.117682000E0,-3.792795264E0,9.848675823E0,1.076412042E1
1.513294292E0,1.966520073E0,-3.321519622E0,9.117679726E0,9.901099807E0
1.523229292E0,2.092605923E0,-2.809997596E0,8.203243026E0,8.920105503E0
1.533165292E0,2.595510031E0,-2.251681764E0,7.285234262E0,8.054897972E0
1.543100292E0,3.217477190E0,-1.654923705E0,6.579924983E0,7.509084147E0
1.553036292E0,3.803312066E0,-1.205084834E0,5.966141587E0,7.177204021E0
1.562971292E0,4.167920460E0,-1.079331398E0,5.336604622E0,6.856811658E0
1.572907292E0,3.943015496E0,-9.438514110E-1,4.770338039E0,6.260539249E0
1.582842292E0,3.305316988E0,-7.524065539E-1,4.296881386E0,5.473063645E0
1.592778292E0,2.583974059E0,-8.184365290E-1,3.987494681E0,4.821501231E0
1.602713292E0,2.038384108E0,-1.351810185E0,3.760457237E0,4.485915646E0
1.612649292E0,1.467611075E0,-2.170553693E0,3.583643868E0,4.439334294E0
1.622584292E0,6.831062311E-1,-2.854308380E0,3.610738696E0,4.653079022E0
1.632520292E0,8.479749084E-2,-3.109075367E0,3.913465422E0,4.998875060E0
1.642455292E0,-2.650981396E-1,-3.017704144E0,4.226903079E0,5.200338927E0
1.652391292E0,-5.534427622E-1,-2.762432250E0,4.579234074E0,5.376496586E0
1.662325583E0,-8.555371124E-1,-2.458170630E0,4.922624093E0,5.568372702E0
1.672261583E0,-1.012655013E0,-2.231268549E0,5.141188921E0,5.695248285E0
1.682196583E0,-9.900148863E-1,-2.376459007E0,5.024448676E0,5.645597522E0
1.692132583E0,-1.050648174E0,-3.006602620E0,4.562758375E0,5.564376415E0
1.702067583E0,-1.245635859E0,-3.820357576E0,3.890210461E0,5.592895327E0
1.712003583E0,-1.531299241E0,-4.682343875E0,3.516292130E0,6.052564074E0
1.721938583E0,-1.912201194E0,-5.370303880E0,3.651903094E0,6.770012805E0
1.731874583E0,-2.356855924E0,-5.845334018E0,4.315577273E0,7.638514701E0
1.741809583E0,-2.882439043E0,-6.177869850E0,5.194153000E0,8.570516677E0
1.751745583E0,-3.425312963E0,-6.353571079E0,6.048826479E0,9.417480349E0
1.761680583E0,-3.921807060E0,-6.562392107E0,6.612691026E0,1.010807813E1
1.771616583E0,-4.453663364E0,-6.847343298E0,6.686694556E0,1.055618831E1
1.781552583E0,-4.702199265E0,-7.362595264E0,6.186458241E0,1.070470703E1
1.791487583E0,-4.679616149E0,-8.059002156E0,5.383892224E0,1.076255632E1
1.801423583E0,-4.687668350E0,-8.392353675E0,4.464321669E0,1.059886799E1
1.811358583E0,-4.503006848E0,-8.209570883E0,3.722514070E0,1.007627092E1
1.821294583E0,-3.989166985E0,-7.927676616E0,3.405476283E0,9.505723459E0
1.831229583E0,-3.714150798E0,-7.702994431E0,3.340608442E0,9.180996902E0
1.841165583E0,-3.596670295E0,-7.522237115E0,3.392702456E0,9.001695306E0
1.851100583E0,-3.420509183E0,-7.342555686E0,3.242132560E0,8.724931553E0
1.861036583E0,-3.257733808E0,-7.148925140E0,2.869239246E0,8.363760761E0
1.870971583E0,-3.083908366E0,-7.051397091E0,2.340862035E0,8.044397231E0
1.880907583E0,-2.981418955E0,-7.072244754E0,1.694024329E0,7.859721577E0
1.890842583E0,-3.006313476E0,-7.004087269E0,9.080796075E-1,7.675921297E0
1.900778583E0,-2.807236248E0,-6.955160108E0,1.272412598E-1,7.501401057E0
1.910713583E0,-2.537279949E0,-6.791538641E0,-4.304351789E-1,7.262786043E0
1.920649583E0,-2.208208885E0,-6.601115878E0,-7.271252400E-1,6.998544736E0
1.930584583E0,-1.657918941E0,-6.597671283E0,-6.468084705E-1,6.833470770E0
1.940520583E0,-1.326788195E0,-6.653009917E0,-3.898625189E-1,6.795211597E0
1.950455583E0,-1.403709779E0,-6.588881748E0,-2.223240030E-1,6.740414809E0
1.960391583E0,-1.586037658E0,-6.462944418E0,-1.331200504E-1,6.656041387E0
1.970326583E0,-1.948904459E0,-6.328298829E0,-1.825377935E-1,6.624116145E0
1.980262583E0,-2.247519716E0,-6.355116498E0,-4.768568087E-1,6.757680297E0
1.990197583E0,-1.910987750E0,-6.531108919E0,-1.105801451E0,6.894204431E0
2.000133583E0,-1.217964934E0,-6.655309042E0,-1.911395740E0,7.030647957E0
2.010068583E0,-7.596556395E-1,-6.608000389E0,-2.588393970E0,7.137403532E0
2.020004583E0,-5.327710276E-1,-6.518322812E0,-2.946040669E0,7.172972388E0
2.029939583E0,-5.631251666E-1,-6.488216668E0,-2.995195872E0,7.168351540E0
2.039875583E0,-7.219864145E-1,-6.524361232E0,-2.817110149E0,7.143155007E0
2.049810583E0,-6.095967901E-1,-6.751769974E0,-2.714813111E0,7.302617082E0
2.059746583E0,-3.288870963E-1,-6.913897476E0,-2.873460935E0,7.494459472E0
2.069681583E0,2.243451662E-1,-6.872668759E0,-3.199936128E0,7.584424688E0
2.079617583E0,7.636606899E-1,-6.758114203E0,-3.594240192E0,7.692453951E0
2.089552583E0,1.057829943E0,-6.668481649E0,-3.713564322E0,7.705725901E0
2.099488583E0,1.154890726E0,-6.531127630E0,-3.561972917E0,7.528416286E0
2.109423583E0,1.224699099E0,-6.486627980E0,-3.487215096E0,7.465714939E0
2.119359583E0,1.174212558E0,-6.475557446E0,-3.362779915E0,7.390528271E0
2.129294583E0,1.151381958E0,-6.384252005E0,-3.439758509E0,7.342771457E0
2.139230583E0,1.514059164E0,-6.289361050E0,-3.800587263E0,7.502859529E0
2.149165583E0,2.224251744E0,-6.136244692E0,-4.293939652E0,7.812727595E0
2.159101583E0,2.932402039E0,-5.724978440E0,-4.731403769E0,7.985019817E0
2.169036583E0,3.335072883E0,-5.186128866E0,-4.990548273E0,7.932478542E0
2.178972583E0,3.563706032E0,-4.812885303E0,-5.049431489E0,7.833302240E0
2.188907583E0,3.487406007E0,-4.595431446E0,-5.096309202E0,7.697555347E0
2.198843583E0,3.065878184E0,-4.513655797E0,-5.240434881E0,7.565372128E0
2.208778583E0,2.504910348E0,-4.438283433E0,-5.240405645E0,7.309910192E0
2.218714583E0,2.289895949E0,-4.333052262E0,-5.091398710E0,7.066916314E0
2.228649583E0,2.635948790E0,-4.163177199E0,-5.029536338E0,7.041058598E0
2.238585583E0,3.222065501E0,-3.842358602E0,-5.184424403E0,7.212744423E0
2.248520583E0,4.055494875E0,-3.563508981E0,-5.637678341E0,7.805706375E0
2.258456583E0,4.450754959E0,-3.285322434E0,-6.178245242E0,8.292965541E0
2.268391583E0,4.413972172E0,-2.884219227E0,-6.449537922E0,8.330570826E0
2.278327583E0,4.689045369E0,-2.582480680E0,-6.254849029E0,8.232829970E0
2.288262583E0,4.927119432E0,-2.374197012E0,-5.622334077E0,7.843720917E0
2.298198583E0,5.240712624E0,-2.066581428E0,-4.817354915E0,7.412336743E0
2.308133583E0,5.580494910E0,-1.724464933E0,-4.149955475E0,7.165042442E0
2.318069583E0,5.691897817E0,-1.353687726E0,-3.944883682E0,7.056364396E0
2.328004583E0,5.423645689E0,-1.187736729E0,-4.078457476E0,6.889155716E0
2.337940583E0,4.880273587E0,-1.203370138E0,-4.004348695E0,6.426505928E0
2.347875583E0,4.592584145E0,-1.227981361E0,-3.748005592E0,6.053702443E0
2.357811583E0,4.788452128E0,-1.263818068E0,-3.408144953E0,6.011818520E0
2.367746583E0,5.241494397E0,-1.055663623E0,-3.013719851E0,6.137605114E0
2.377682583E0,6.002644000E0,-8.133421424E-1,-2.777571861E0,6.663945219E0
2.387618583E0,6.637566835E0,-6.708551449E-1,-2.564528559E0,7.147317458E0
2.397553583E0,6.718185906E0,-5.722668497E-1,-2.243570214E0,7.105991734E0
2.407489583E0,6.356782955E0,-6.953010379E-1,-1.759004436E0,6.632211522E0
2.417424583E0,6.201594928E0,-7.574325281E-1,-9.540796530E-1,6.320106935E0
2.427360583E0,6.365992320E0,-7.922665114E-1,-1.476065272E-1,6.416800770E0
2.437295583E0,6.317591407E0,-7.979161642E-1,7.499890226E-1,6.411794985E0
2.447231583E0,6.440677636E0,-6.087438275E-1,1.702813278E0,6.689728733E0
2.457166583E0,6.666642115E0,-3.939285630E-1,2.452992920E0,7.114525358E0
2.467102583E0,6.600445787E0,-2.885399196E-1,2.830811344E0,7.187672275E0
2.477037583E0,6.464837161E0,-3.413565029E-1,3.094951125E0,7.175609121E0
2.486973583E0,6.405832323E0,-6.462132239E-1,3.122624243E0,7.155631450E0
2.496908583E0,6.311734836E0,-8.878114039E-1,3.488562294E0,7.266104363E0
2.506844583E0,6.245513949E0,-9.707041642E-1,4.487833908E0,7.751732984E0
2.516779583E0,6.337681271E0,-1.162269474E0,5.711547385E0,8.610391847E0
2.526715583E0,6.182404951E0,-1.261794347E0,6.841478541E0,9.306991167E0
2.536650583E0,5.706551524E0,-1.233459909E0,7.590372965E0,9.576007278E0
2.546586583E0,5.053735625E0,-1.224019872E0,7.844941438E0,9.411778503E0
2.556521583E0,4.405026809E0,-1.380902422E0,7.578415409E0,8.873755281E0
2.566457583E0,3.999455453E0,-1.670843042E0,7.122953562E0,8.338094977E0
2.576392583E0,3.732063743E0,-1.956882985E0,6.659989738E0,7.881189891E0
2.586328583E0,3.370393282E0,-1.962230263E0,6.357633140E0,7.458511757E0
2.596263583E0,2.826741975E0,-1.861937651E0,6.211004852E0,7.073461902E0
2.606199583E0,2.147318028E0,-1.779704457E0,6.190197535E0,6.789467445E0
2.616134583E0,1.501391317E0,-1.835106240E0,6.152105849E0,6.593193246E0
2.626070583E0,1.014010105E0,-2.097119389E0,5.921780516E0,6.363459020E0
2.636005583E0,5.566669169E-1,-2.553504803E0,5.541972869E0,6.127293703E0
2.645941583E0,-7.599918544E-3,-3.179768497E0,5.196918148E0,6.092531797E0
2.655876583E0,-7.186368370E-1,-3.698967040E0,5.197712785E0,6.419892076E0
2.665812792E0,-1.500645797E0,-3.979612342E0,5.761041727E0,7.160925498E0
2.675747792E0,-1.941783135E0,-4.202481013E0,6.764433873E0,8.196885630E0
2.685683792E0,-2.245420565E0,-4.288367840E0,7.758656416E0,9.144876250E0
2.695618792E0,-2.351011632E0,-4.238110144E0,8.622015933E0,9.890803408E0
2.705554792E0,-2.224793343E0,-4.295746441E0,9.005270514E0,1.022242828E1
2.715489792E0,-2.112702511E0,-4.528210101E0,8.856310356E0,1.016869863E1
2.725425792E0,-2.047112539E0,-5.139470424E0,8.087419040E0,9.798529109E0
2.735360792E0,-2.256517996E0,-5.851134456E0,7.156945181E0,9.515750744E0
2.745296792E0,-2.626929460E0,-6.294408951E0,6.265840625E0,9.261808742E0
2.755231792E0,-3.130302514E0,-6.419346408E0,5.623903470E0,9.090384611E0
2.765167792E0,-3.347243863E0,-6.542330310E0,5.249191672E0,9.031065307E0
2.775102792E0,-3.198141325E0,-6.900601493E0,5.341749587E0,9.294121666E0
2.785038792E0,-3.093556564E0,-7.152008961E0,5.888695216E0,9.767192828E0
2.794973792E0,-3.011094744E0,-7.313393283E0,6.313164480E0,1.011970645E1
2.804909792E0,-2.878837158E0,-7.382961116E0,6.406998258E0,1.019045852E1
2.814844792E0,-2.941673091E0,-7.623289865E0,5.969304346E0,1.011931733E1
2.824780792E0,-3.128692776E0,-8.050242442E0,5.169452022E0,1.006570197E1
2.834715792E0,-3.385003135E0,-8.287739970E0,4.263403738E0,9.915719412E0
2.844651792E0,-3.586064031E0,-8.279150995E0,3.466484962E0,9.665439174E0
2.854586792E0,-3.500197084E0,-8.230720847E0,2.745496375E0,9.355955089E0
2.864522792E0,-3.293938014E0,-8.043769575E0,2.255473391E0,8.979945257E0
2.874458792E0,-3.123839294E0,-7.638565131E0,1.971364784E0,8.484829304E0
2.884393792E0,-2.872711907E0,-7.150979851E0,1.798993544E0,7.913618914E0
2.894329792E0,-2.507441900E0,-6.843774158E0,1.693839557E0,7.482887280E0
2.904264792E0,-2.158869933E0,-6.740938007E0,1.614352507E0,7.259965469E0
2.914200792E0,-1.948324123E0,-6.664082789E0,1.551518328E0,7.114293740E0
2.924135792E0,-1.776920597E0,-6.720043566E0,1.505488461E0,7.112167591E0
2.934071792E0,-1.597748461E0,-6.961775647E0,1.205986474E0,7.243861103E0
2.944006792E0,-1.362752957E0,-7.162547398E0,6.841844577E-1,7.323065562E0
2.953942792E0,-1.148877157E0,-7.194732227E0,7.627400458E-2,7.286282198E0
2.963877792E0,-9.108587891E-1,-7.111531611E0,-4.641899854E-1,7.184637634E0
2.973813792E0,-6.452389316E-1,-6.950132672E0,-7.071768790E-1,7.015752032E0
2.983748792E0,-4.561849279E-1,-6.871293494E0,-9.041046703E-1,6.945515403E0
2.993684792E0,-3.913425588E-1,-6.925419415E0,-1.090577640E0,7.021676627E0
3.003619792E0,-5.273919181E-1,-6.918565308E0,-1.043752552E0,7.016702042E0
3.013555792E0,-7.343377805E-1,-6.814273785E0,-1.050738806E0,6.933803519E0
3.023490792E0,-7.894785590E-1,-6.816454212E0,-1.371662652E0,6.997769848E0
3.033426792E0,-7.835448045E-1,-6.922533814E0,-1.766027527E0,7.187090516E0
3.043361792E0,-8.729742403E-1,-7.102178990E0,-2.079909571E0,7.451781951E0
3.053297792E0,-9.797540461E-1,-7.347086694E0,-2.547014979E0,7.837530617E0
3.063232792E0,-1.028044738E0,-7.443465180E0,-3.012974331E0,8.095681824E0
3.073168792E0,-9.415351827E-1,-7.451774073E0,-3.276141136E0,8.194420424E0
3.083103792E0,-8.051659808E-1,-7.566570119E0,-3.689836906E0,8.456723480E0
3.093039792E0,-6.012767504E-1,-7.671384968E0,-4.512766435E0,8.920579687E0
3.102974792E0,-3.777849123E-1,-7.540473411E0,-5.204835863E0,9.170156872E0
3.112910792E0,7.012982346E-2,-7.262954031E0,-5.691232989E0,9.227434767E0
3.122845792E0,4.132460094E-1,-6.865495394E0,-5.931396847E0,9.082250152E0
3.132781792E0,5.834155165E-1,-6.473769953E0,-5.838482836E0,8.737159315E0
3.142716792E0,5.832851236E-1,-6.401052809E0,-5.689827318E0,8.584161783E0
3.152652792E0,3.715117635E-1,-6.471910538E0,-5.434171262E0,8.458951727E0
3.162587792E0,7.353984654E-2,-6.394831957E0,-5.155585350E0,8.214581192E0
3.172523792E0,1.405520077E-1,-6.313289611E0,-5.101078776E0,8.117782040E0
3.182458792E0,6.247969195E-1,-6.195907926E0,-5.346086467E0,8.207331279E0
3.192394792E0,1.172846356E0,-5.986699812E0,-5.903168828E0,8.489024999E0
3.202329792E0,1.404838584E0,-5.816024850E0,-6.540279107E0,8.864252213E0
3.212265792E0,1.571736684E0,-5.663547592E0,-6.964356608E0,9.113088966E0
3.222200792E0,1.409958991E0,-5.376470938E0,-7.350712552E0,9.215606281E0
3.232136792E0,9.341023484E-1,-4.872298277E0,-7.346284456E0,8.864521025E0
3.242071792E0,8.925584659E-1,-4.277955118E0,-6.908394077E0,8.174562333E0
3.252007792E0,1.489129414E0,-3.842912334E0,-6.355614681E0,7.574913834E0
3.261942792E0,2.369353471E0,-3.488871027E0,-6.029290347E0,7.357880061E0
3.271878792E0,3.016075987E0,-3.189646783E0,-5.854228803E0,7.317277898E0
3.281813792E0,3.366646678E0,-3.012501292E0,-5.609333378E0,7.202367308E0
3.291749792E0,3.423442438E0,-2.887259195E0,-5.275162665E0,6.919795150E0
3.301684792E0,3.402736863E0,-2.750793368E0,-4.810501978E0,6.502800289E0
3.311620792E0,3.821408029E0,-2.391410630E0,-4.375165663E0,6.282044150E0
3.321555792E0,4.602839576E0,-2.014686512E0,-4.163226315E0,6.525147298E0
3.331491792E0,5.513129139E0,-1.773431856E0,-4.117569501E0,7.105915286E0
3.341426792E0,5.941106733E0,-1.612888949E0,-4.125010083E0,7.410389205E0
3.351362792E0,5.819619133E0,-1.632829124E0,-4.066561900E0,7.284986170E0
3.361298792E0,5.484088358E0,-1.866286518E0,-3.647183806E0,6.845451059E0
3.371233792E0,5.259220816E0,-1.808644958E0,-3.039293818E0,6.337815640E0
3.381169792E0,5.566400782E0,-1.549995713E0,-2.349282610E0,6.237502157E0
3.391104792E0,6.361664795E0,-1.322739291E0,-1.446512275E0,6.656787210E0
3.401040792E0,7.246654333E0,-1.003181939E0,-4.647635972E-1,7.330510093E0
3.410975792E0,7.862667857E0,-7.454357227E-1,4.263251710E-1,7.909423077E0
3.420911792E0,8.225841930E0,-6.370661321E-1,1.000050462E0,8.310862148E0
3.430846792E0,8.150836771E0,-6.261325698E-1,1.403118918E0,8.294391163E0
3.440782792E0,8.124420805E0,-7.368417044E-1,1.830871394E0,8.360696094E0
3.450717792E0,8.299996319E0,-9.795907626E-1,2.268338435E0,8.659959365E0
3.460653792E0,8.169570665E0,-1.164304159E0,3.374943293E0,8.915589227E0
3.470588792E0,7.891908029E0,-1.297626231E0,4.897428440E0,9.378211530E0
3.480524792E0,7.588003673E0,-1.505360115E0,6.267400078E0,9.956114330E0
3.490459792E0,7.174969223E0,-1.745161445E0,7.360244683E0,1.042587999E1
3.500395792E0,6.683913621E0,-1.859488252E0,7.763273377E0,1.041157103E1
3.510330792E0,6.467772464E0,-1.923038716E0,7.542288387E0,1.012009252E1
3.520266792E0,5.885134261E0,-1.769107840E0,6.961442941E0,9.285808292E0
3.530201792E0,5.121349903E0,-1.315352796E0,6.442372743E0,8.334419258E0
3.540137792E0,4.933777657E0,-9.647645625E-1,6.400483291E0,8.138741855E0
3.550072792E0,5.074298528E0,-8.331136250E-1,6.759878892E0,8.493441381E0
3.560008792E0,5.042205500E0,-6.921743855E-1,7.260827984E0,8.866936601E0
3.569943792E0,4.869553009E0,-5.979041129E-1,7.678067751E0,9.111682623E0
3.579879792E0,4.414311310E0,-7.508807230E-1,7.843069160E0,9.031262373E0
3.589814792E0,3.747490160E0,-1.008342691E0,7.701848377E0,8.624320605E0
3.599750792E0,3.100715311E0,-1.237463205E0,7.158835001E0,7.899029636E0
3.609685792E0,2.725018841E0,-1.282245861E0,6.243770310E0,6.932138906E0
3.619621792E0,2.583073296E0,-1.169867638E0,5.132516915E0,5.863752026E0
3.629556792E0,2.152899780E0,-1.132436687E0,3.984869866E0,4.668680559E0
3.639492792E0,1.331973799E0,-1.234799214E0,3.263158563E0,3.734579910E0
3.649427792E0,5.625191027E-1,-1.683191192E0,3.181281171E0,3.642816249E0
3.659363792E0,-4.187191129E-2,-2.576372094E0,3.660207894E0,4.476222543E0
3.669299042E0,-4.464971879E-1,-3.586075140E0,4.484009244E0,5.758961152E0
3.679235042E0,-8.004969791E-1,-4.387538664E0,5.363505907E0,6.975563530E0
3.689170042E0,-1.203529182E0,-4.904095436E0,6.338166590E0,8.103763956E0
3.699106042E0,-1.569023137E0,-5.393977502E0,7.320555537E0,9.227532729E0
3.709041042E0,-2.137177494E0,-5.885576311E0,7.942419786E0,1.011383054E1
3.718977042E0,-2.765596763E0,-6.144240174E0,8.111281527E0,1.054481393E1
3.728912042E0,-3.220476227E0,-6.272193625E0,7.877568317E0,1.057203682E1
3.738848042E0,-3.589297833E0,-6.201936990E0,7.422895260E0,1.031728915E1
3.748783042E0,-3.619189969E0,-6.067472665E0,6.873377441E0,9.856778278E0
3.758719042E0,-3.368917152E0,-6.285598952E0,6.027577112E0,9.337560859E0
3.768654042E0,-3.188237312E0,-6.702089691E0,5.203224370E0,9.064017168E0
3.778590042E0,-3.094446803E0,-6.935927446E0,4.784930935E0,8.976539122E0
3.788526042E0,-2.937055253E0,-7.362009373E0,4.521671160E0,9.125293729E0
3.798461042E0,-2.932197094E0,-7.951571263E0,4.221576265E0,9.468208464E0
3.808397042E0,-3.177966677E0,-8.102314237E0,4.081010955E0,9.612576065E0
3.818332042E0,-3.576811396E0,-7.843136988E0,4.157609480E0,9.570480352E0
3.828268042E0,-3.680320270E0,-7.534834356E0,4.348636846E0,9.446117111E0
3.838203042E0,-3.535376565E0,-7.233537859E0,4.276394497E0,9.116496438E0
3.848139042E0,-3.476549774E0,-6.844809115E0,3.813943473E0,8.572279450E0
3.858074042E0,-3.168416712E0,-6.582650371E0,3.373620653E0,8.046829604E0
3.868010042E0,-2.696920046E0,-6.786013023E0,2.822871410E0,7.828917772E0
3.877945042E0,-2.300799252E0,-6.998665731E0,2.243165002E0,7.701090081E0
3.887881042E0,-1.876959440E0,-7.055164452E0,1.807668473E0,7.521036331E0
3.897816042E0,-1.456605007E0,-7.031749277E0,1.588038282E0,7.354526608E0
3.907752042E0,-1.210575369E0,-6.943809493E0,1.522301545E0,7.211059907E0
3.917687042E0,-1.158475216E0,-6.761341281E0,1.504177516E0,7.022844918E0
3.927623042E0,-1.174065574E0,-6.642186720E0,1.553470713E0,6.921729961E0
3.937558042E0,-1.203225638E0,-6.684929867E0,1.571317000E0,6.971734101E0
3.947494042E0,-1.349312693E0,-6.767400751E0,1.429413847E0,7.047097389E0
3.957429042E0,-1.444932796E0,-6.858781037E0,1.051738679E0,7.087796720E0
3.967365042E0,-1.366126654E0,-6.953059203E0,4.501379567E-1,7.100278762E0
3.977300042E0,-1.051641323E0,-7.056240340E0,-2.452509356E-1,7.138390941E0
3.987236042E0,-6.186482068E-1,-7.278004180E0,-1.030944811E0,7.376646775E0
3.997171042E0,-3.123060738E-1,-7.556081969E0,-1.866128350E0,7.789373840E0
4.007107042E0,-1.696313806E-1,-7.688069413E0,-2.494079551E0,8.084282214E0
4.017042042E0,-2.837555815E-1,-7.766439060E0,-2.747787899E0,8.243083843E0
4.026978042E0,-4.884395216E-1,-7.833403128E0,-2.846363769E0,8.348806168E0
4.036913042E0,-7.451848041E-1,-7.826916227E0,-3.088488198E0,8.447169784E0
4.046849042E0,-9.813450003E-1,-7.762202168E0,-3.487299296E0,8.565983707E0
4.056784042E0,-1.086191863E0,-7.722498989E0,-3.767890218E0,8.661050749E0
4.066720042E0,-7.428345157E-1,-7.489999076E0,-4.204214128E0,8.621328535E0
4.076655042E0,-2.068706343E-1,-7.027909995E0,-4.828682141E0,8.529389520E0
4.086591042E0,1.095032195E-1,-6.610886575E0,-5.226020325E0,8.427757751E0
4.096526042E0,4.200044040E-2,-6.289777372E0,-5.169222811E0,8.141494206E0
4.106462042E0,-2.155248606E-1,-5.972501603E0,-4.781386937E0,7.653684565E0
4.116397042E0,-3.600397456E-1,-5.815500355E0,-4.335325660E0,7.262556132E0
4.126333042E0,-5.741665370E-1,-5.849601316E0,-4.019141566E0,7.120463588E0
4.136268042E0,-4.943690003E-1,-5.857006230E0,-3.894005889E0,7.050688233E0
4.146204042E0,-1.195412077E-1,-5.800239707E0,-3.939584350E0,7.012659667E0
4.156139042E0,4.196850729E-1,-5.613960280E0,-4.289394611E0,7.077541361E0
4.166075042E0,8.878805472E-1,-5.428693591E0,-4.875159904E0,7.350253741E0
4.176011042E0,1.198983995E0,-5.210039300E0,-5.460958527E0,7.642260147E0
4.185946042E0,1.295530150E0,-4.962186354E0,-5.873526953E0,7.797436159E0
4.195882042E0,1.254824758E0,-4.799079443E0,-6.083137940E0,7.849223902E0
4.205817042E0,1.160014495E0,-4.696874206E0,-6.309866651E0,7.951143194E0
4.215753042E0,1.060153700E0,-4.540878094E0,-6.401543975E0,7.919802081E0
4.225688042E0,1.223563789E0,-4.373186966E0,-6.364432282E0,7.818431483E0
4.235624042E0,1.542073905E0,-4.267637706E0,-6.134744296E0,7.630583929E0
4.245559042E0,2.036548667E0,-4.153481346E0,-5.753456134E0,7.382492482E0
4.255495042E0,2.474821161E0,-3.926164990E0,-5.091426192E0,6.889276593E0
4.265430042E0,3.132490250E0,-3.699988841E0,-4.211174068E0,6.421557414E0
4.275366042E0,3.578020893E0,-3.360068561E0,-3.180426893E0,5.848710069E0
4.285301042E0,3.819012424E0,-2.908176439E0,-2.279825875E0,5.314127597E0
4.295237042E0,4.150113934E0,-2.542013270E0,-1.843090321E0,5.204061785E0
4.305172042E0,4.453012277E0,-2.136344558E0,-1.754969273E0,5.241488677E0
4.315108042E0,4.360066983E0,-1.420655302E0,-1.915319222E0,4.969596896E0
4.325043042E0,4.375663261E0,-7.180714113E-1,-2.154965601E0,4.930104692E0
4.334979042E0,4.688751839E0,-3.699565503E-1,-2.541360136E0,5.346005331E0
4.344914042E0,4.951756675E0,-1.466382283E-1,-2.994353288E0,5.788570511E0
4.354850042E0,5.128242016E0,3.350951582E-2,-3.503752776E0,6.210980001E0
4.364785042E0,5.071594191E0,1.131488854E-1,-3.873443570E0,6.382588456E0
4.374721042E0,4.800880970E0,8.692850858E-2,-3.921038151E0,6.199238246E0
4.384656042E0,4.709128508E0,8.302446887E-2,-3.557477578E0,5.902408922E0
4.394592042E0,4.917157531E0,1.369885683E-1,-2.994787152E0,5.758988985E0
4.404527042E0,5.373625683E0,2.280424337E-1,-2.496748220E0,5.929722422E0
4.414463042E0,5.885808445E0,3.879770842E-1,-1.998064924E0,6.227803041E0
4.424398042E0,6.382264536E0,3.993564968E-1,-1.468788412E0,6.561259454E0
4.434334042E0,6.750474815E0,2.235832009E-1,-9.950610334E-1,6.827081817E0
4.444269042E0,6.958935655E0,-7.665697893E-2,-6.326693183E-1,6.988056397E0
4.454205042E0,6.917399374E0,-3.740492358E-1,-4.188366419E-1,6.940154974E0
4.464140042E0,6.406654442E0,-6.249463159E-1,-6.439714015E-2,6.437385030E0
4.474076042E0,6.120434990E0,-7.046573138E-1,7.234865177E-1,6.203200717E0
4.484011042E0,6.422910286E0,-6.099150248E-1,1.906224462E0,6.727515484E0
4.493947042E0,6.851695966E0,-4.028509390E-1,3.370128111E0,7.646292563E0
4.503882042E0,7.175877296E0,-3.661675546E-1,4.834981347E0,8.660504504E0
4.513818042E0,7.405934826E0,-4.064732891E-1,6.127458081E0,9.620750164E0
4.523753042E0,7.624572160E0,-4.735806137E-1,7.175906532E0,1.048103114E1
4.533689042E0,7.763582110E0,-8.340187740E-1,7.839376643E0,1.106456599E1
4.543624042E0,7.331165310E0,-1.346599147E0,7.963293761E0,1.090749108E1
4.553560042E0,6.472574197E0,-1.719006557E0,7.999286882E0,1.043253521E1
4.563495042E0,5.225277729E0,-1.965944707E0,8.170821385E0,9.895998587E0
4.573431042E0,3.766787725E0,-2.117743980E0,8.275118170E0,9.335475889E0
4.583367042E0,2.498992966E0,-2.017397866E0,8.228188418E0,8.832776722E0
4.593302042E0,1.886009176E0,-1.872101281E0,7.821129822E0,8.260258199E0
4.603238042E0,1.507042066E0,-1.974905857E0,7.082027730E0,7.505101312E0
4.613173042E0,1.069220977E0,-1.885837560E0,6.435698732E0,6.791011336E0
4.623109042E0,8.603154570E-1,-1.702906249E0,6.123346903E0,6.413689241E0
4.633044042E0,7.902184510E-1,-1.706538832E0,6.227372378E0,6.505143098E0
4.642980042E0,6.346143946E-1,-1.671689719E0,6.756003358E0,6.988623850E0
4.652915042E0,4.297975400E-1,-1.553138591E0,7.448273930E0,7.620613489E0
4.662851042E0,2.234267879E-1,-1.436707956E0,7.939204402E0,8.071246237E0
4.672785708E0,-5.356108010E-2,-1.366989557E0,8.135541624E0,8.249761618E0
4.682721708E0,-4.939634228E-1,-1.362021617E0,7.907967991E0,8.039593304E0
4.692656708E0,-8.231499696E-1,-1.606934291E0,7.285754664E0,7.506133140E0
4.702592708E0,-1.010186026E0,-2.347003950E0,6.396288498E0,6.887772492E0
4.712527708E0,-1.262025020E0,-3.107453642E0,5.609906405E0,6.536055780E0
4.722463708E0,-1.279400021E0,-3.838190415E0,5.041437761E0,6.464105875E0
4.732398708E0,-1.194350515E0,-4.716042548E0,4.694618350E0,6.760693154E0
4.742334708E0,-1.291210227E0,-5.428091912E0,4.941419967E0,7.453122631E0
4.752269708E0,-1.403447531E0,-5.896694207E0,5.692111241E0,8.315094582E0
4.762205708E0,-1.627671295E0,-6.114980707E0,6.637528244E0,9.170555276E0
4.772140708E0,-1.981608521E0,-6.145572755E0,7.382624901E0,9.808057261E0
4.782076708E0,-2.128772998E0,-6.668199229E0,7.584491835E0,1.032090460E1
4.792011708E0,-2.473254692E0,-7.313610799E0,7.404770061E0,1.069750024E1
4.801947708E0,-2.822062156E0,-7.943685123E0,7.090505024E0,1.101550860E1
4.811882708E0,-3.003434599E0,-8.649098482E0,6.704457813E0,1.134800769E1
4.821818708E0,-3.173988816E0,-8.925020403E0,6.443969618E0,1.145665478E1
4.831753708E0,-3.157074868E0,-9.121594437E0,5.978617206E0,1.135405084E1
4.841689708E0,-3.024695075E0,-9.271438694E0,5.182637494E0,1.104391630E1
4.851624708E0,-2.937297328E0,-9.060633706E0,4.579785467E0,1.056869120E1
4.861560708E0,-2.745558063E0,-8.714059879E0,4.208190819E0,1.005891637E1
4.871495708E0,-2.445019657E0,-8.515814125E0,3.851025345E0,9.660621489E0
4.881431708E0,-2.167746737E0,-8.399054584E0,3.392133522E0,9.313958001E0
4.891367708E0,-2.099147496E0,-8.184436626E0,2.736371210E0,8.881393500E0
4.901302708E0,-2.037600142E0,-8.060774447E0,2.068972355E0,8.567878713E0
4.911238708E0,-1.996446708E0,-7.868273583E0,1.603626959E0,8.274487782E0
4.921173708E0,-1.971949067E0,-7.729479395E0,1.211042562E0,8.068460753E0
4.931109708E0,-2.061105364E0,-7.751339795E0,8.424223924E-1,8.064806224E0
4.941044708E0,-2.190924954E0,-7.703336493E0,3.797474205E-1,8.017839696E0
4.950980708E0,-2.190472818E0,-7.558682810E0,-1.473568511E-1,7.871059079E0
4.960915708E0,-2.113321439E0,-7.455239133E0,-5.142322111E-1,7.766025547E0
4.970851708E0,-1.798787430E0,-7.428652428E0,-7.213780117E-1,7.677297660E0
4.980786708E0,-1.286658170E0,-7.475094523E0,-1.073558149E0,7.660617108E0
4.990722708E0,-1.004795405E0,-7.456621415E0,-1.559255363E0,7.683885347E0
5.000657708E0,-9.273366813E-1,-7.333897714E0,-1.876552182E0,7.626759278E0
5.010593708E0,-1.020998917E0,-7.210631391E0,-1.996128327E0,7.551170250E0
5.020528708E0,-1.176394154E0,-7.224196932E0,-2.121327154E0,7.620561227E0
5.030464708E0,-1.226879160E0,-7.405978096E0,-2.328485234E0,7.859744748E0
5.040399708E0,-1.118052098E0,-7.595644814E0,-2.633953135E0,8.116746254E0
5.050335708E0,-8.466010319E-1,-7.811509398E0,-3.222256705E0,8.492311267E0
5.060270708E0,-5.200732141E-1,-7.945197798E0,-3.738122043E0,8.796033231E0
5.070206708E0,-2.298337282E-1,-7.875217736E0,-4.133142976E0,8.896895458E0
5.080141708E0,-1.898114374E-1,-7.713920538E0,-4.563328478E0,8.964628562E0
5.090077708E0,-4.795104944E-1,-7.501154394E0,-4.880347554E0,8.961865866E0
5.100012708E0,-6.969544843E-1,-7.315550321E0,-5.160730315E0,8.979763885E0
5.109948708E0,-6.311388096E-1,-7.039744760E0,-5.597987441E0,9.016307774E0
5.119883708E0,-4.890004523E-1,-6.680319922E0,-5.983984950E0,8.981863481E0
5.129819708E0,-3.488036630E-1,-6.541987664E0,-6.397000104E0,9.156466399E0
5.139754708E0,-3.552651286E-2,-6.462056226E0,-6.710198609E0,9.315911022E0
5.149690708E0,5.751768628E-1,-6.240861905E0,-7.021314336E0,9.411590766E0
5.159625708E0,7.955481881E-1,-5.900924667E0,-7.189363314E0,9.334921194E0
5.169561708E0,6.311060652E-1,-5.459345865E0,-7.175673813E0,9.038420592E0
5.179496708E0,5.109107003E-1,-4.972837057E0,-6.970697914E0,8.577923265E0
5.189432708E0,7.146291554E-1,-4.578827108E0,-6.805892971E0,8.233864928E0
5.199367708E0,9.580847034E-1,-4.320180202E0,-6.836190319E0,8.143425652E0
5.209303708E0,1.228421948E0,-4.125528147E0,-6.896048850E0,8.129236909E0
5.219238708E0,1.598895977E0,-4.029404014E0,-6.757457560E0,8.028436818E0
5.229174708E0,1.753349009E0,-4.053973430E0,-6.566414992E0,7.913705779E0
5.239110708E0,1.764669803E0,-4.060786021E0,-6.319109344E0,7.715904712E0
5.249045708E0,1.790749262E0,-3.902248709E0,-5.794681928E0,7.211980765E0
5.258981708E0,2.252527564E0,-3.652279070E0,-5.124070027E0,6.683495828E0
5.268916708E0,3.052126118E0,-3.444685957E0,-4.669223893E0,6.556141163E0
5.278852708E0,3.894906360E0,-3.111067221E0,-4.326805097E0,6.600778526E0
5.288787708E0,4.614245448E0,-2.730790043E0,-3.949725761E0,6.659490138E0
5.298723708E0,5.321933958E0,-2.502520006E0,-3.634174921E0,6.913234756E0
5.308658708E0,5.701679624E0,-2.462130072E0,-3.445053747E0,7.102086338E0
5.318594708E0,5.825369285E0,-2.429497638E0,-3.413275300E0,7.175502377E0
5.328529708E0,5.898551867E0,-2.234677184E0,-3.656335868E0,7.290781043E0
5.338465708E0,6.240370739E0,-1.970153241E0,-3.597080185E0,7.467443780E0
5.348400708E0,7.135349659E0,-1.826720164E0,-3.196880958E0,8.029331801E0
5.358336708E0,8.055314902E0,-1.599650706E0,-2.485503439E0,8.580484130E0
5.368271708E0,8.639097404E0,-1.078005688E0,-1.438163620E0,8.824081529E0
5.378207708E0,9.107397982E0,-5.123253245E-1,-3.574063790E-1,9.128795899E0
5.388142708E0,9.560776466E0,9.103822410E-3,5.383975840E-1,9.575928230E0
5.398078708E0,1.025647234E1,6.400742322E-1,1.300918944E0,1.035844148E1
5.408013708E0,1.078026007E1,1.061562002E0,2.423459803E0,1.110018371E1
5.417949708E0,1.087431487E1,1.205288828E0,4.088930424E0,1.168001700E1
5.427884708E0,1.105655621E1,1.042058102E0,5.725360263E0,1.249452162E1
5.437820708E0,1.097026066E1,5.394357571E-1,7.084621555E0,1.307017492E1
5.447755708E0,1.057087595E1,1.337245063E-1,7.699856815E0,1.307857391E1
5.457691708E0,9.937282190E0,-9.428547531E-2,7.328653931E0,1.234777857E1
5.467626708E0,8.780192472E0,-1.538370278E-1,6.417009861E0,1.087627975E1
5.477562708E0,7.470560008E0,5.036981598E-2,5.458021470E0,9.252124206E0
5.487497708E0,6.219997870E0,3.316900322E-1,4.861453446E0,7.901399964E0
5.497433708E0,5.512818067E0,2.980096315E-1,4.569821811E0,7.166815483E0
5.507368708E0,5.068412721E0,1.137704444E-1,4.458619464E0,6.751373101E0
5.517304708E0,4.486871456E0,1.971720587E-1,4.456206903E0,6.326821654E0
5.527239708E0,4.064719443E0,4.385126688E-1,4.540291033E0,6.109703772E0
5.537175708E0,4.013417727E0,4.377556005E-1,4.469391205E0,6.022840655E0
5.547111708E0,3.860152264E0,3.352249664E-1,4.256813341E0,5.756180253E0
5.557046708E0,3.566112161E0,4.060889809E-1,4.124307833E0,5.467355787E0
5.566982708E0,3.165282020E0,4.884499370E-1,4.230687397E0,5.306251921E0
5.576917708E0,2.378401744E0,4.303252512E-1,4.609924940E0,5.205130414E0
5.586853708E0,1.335739113E0,2.220323731E-1,5.001733997E0,5.181779649E0
5.596788708E0,4.123532492E-1,-3.164089188E-2,5.346996878E0,5.362966713E0
5.606724708E0,-2.906972498E-1,-5.317675723E-1,5.575004375E0,5.607847664E0
5.616659708E0,-7.891466564E-1,-1.413671242E0,5.722405080E0,5.947027722E0
5.626595708E0,-1.181205389E0,-2.610047963E0,5.856954775E0,6.520085565E0
5.636530708E0,-1.551722980E0,-3.642668294E0,6.095220627E0,7.268327937E0
5.646466708E0,-1.685037743E0,-4.202388042E0,6.666973652E0,8.059029416E0
5.656401708E0,-1.646349640E0,-4.442456883E0,7.614797954E0,8.968335307E0
5.666337792E0,-1.799634399E0,-4.567059879E0,8.753354922E0,1.003583291E1
5.676272792E0,-1.939253629E0,-4.852972352E0,9.650582682E0,1.097477979E1
5.686208792E0,-2.085446300E0,-5.284771394E0,1.008392568E1,1.157425817E1
5.696143792E0,-2.289148675E0,-5.530712301E0,1.017193329E1,1.180242378E1
5.706079792E0,-2.271812850E0,-5.858041188E0,9.742342452E0,1.159271395E1
5.716014792E0,-2.180060096E0,-6.122004383E0,8.958816140E0,1.106760978E1
5.725950792E0,-1.979362605E0,-6.300405856E0,7.965625631E0,1.034718232E1
5.735885792E0,-1.656105720E0,-6.575710895E0,6.821131400E0,9.618237547E0
5.745821792E0,-1.481220177E0,-6.566317343E0,6.028244280E0,9.036053661E0
5.755756792E0,-1.539965984E0,-6.353243635E0,5.856623822E0,8.776972286E0
5.765692792E0,-1.692875351E0,-6.258885362E0,6.037632569E0,8.859598183E0
5.775627792E0,-1.747350935E0,-6.219830639E0,6.206334096E0,8.958689156E0
5.785563792E0,-1.786522602E0,-6.162681123E0,6.279414936E0,8.977825660E0
5.795498792E0,-1.787986453E0,-6.274283420E0,5.846894056E0,8.760690503E0
5.805434792E0,-1.774995402E0,-6.525323099E0,4.976724286E0,8.396322697E0
5.815369792E0,-1.856876301E0,-6.809448663E0,4.056492410E0,8.140743907E0
5.825305792E0,-1.752133958E0,-7.310398339E0,3.106138018E0,8.133879190E0
5.835240792E0,-1.403472674E0,-7.617957789E0,2.206838005E0,8.054387029E0
5.845176792E0,-9.497775641E-1,-7.621041611E0,1.428092961E0,7.811645291E0
5.855112792E0,-5.584912482E-1,-7.320940869E0,1.101980295E0,7.424449357E0
5.865047792E0,-2.436751109E-1,-6.899621499E0,1.187928518E0,7.005378545E0
5.874983792E0,-6.731519312E-2,-6.534688584E0,1.566373764E0,6.720134894E0
5.884918792E0,-6.054324031E-2,-6.320367081E0,2.042791446E0,6.642567456E0
5.894854792E0,-2.147014265E-1,-6.345453390E0,2.258101714E0,6.738686725E0
5.904789792E0,-5.304611582E-1,-6.501179945E0,2.125948793E0,6.860494734E0
5.914725792E0,-9.322294852E-1,-6.642070946E0,1.713335343E0,6.922548393E0
5.924660792E0,-1.321650247E0,-6.656952694E0,1.137432548E0,6.881535537E0
5.934596792E0,-1.470879230E0,-6.726193668E0,3.974346632E-1,6.896602154E0
5.944531792E0,-1.537794620E0,-6.901111370E0,-3.524450165E-1,7.079150226E0
5.954467792E0,-1.746472099E0,-7.036996568E0,-1.172108291E0,7.344611858E0
5.964402792E0,-1.845504636E0,-7.194384318E0,-2.064201611E0,7.708824902E0
5.974338792E0,-1.952714797E0,-7.227684796E0,-2.680453117E0,7.952191616E0
5.984273792E0,-2.150173808E0,-7.123269312E0,-3.036331619E0,8.036387422E0
5.994209792E0,-2.464043281E0,-7.060278427E0,-3.050580114E0,8.076204541E0
6.004144792E0,-2.824364497E0,-7.079610491E0,-2.792360639E0,8.117585691E0
6.014080792E0,-3.121209217E0,-7.187626691E0,-2.214721806E0,8.143028742E0
6.024015792E0,-3.388770788E0,-7.459570751E0,-1.700106602E0,8.367755117E0
6.033951792E0,-3.479210550E0,-7.893745224E0,-1.640751516E0,8.781126650E0
6.043886792E0,-3.105532832E0,-8.198788617E0,-2.141555012E0,9.025005641E0
6.053822792E0,-2.164300681E0,-8.044626192E0,-3.186740717E0,8.919390360E0
6.063757792E0,-1.061961659E0,-7.617118714E0,-4.512014483E0,8.916643694E0
6.073693792E0,5.382362008E-3,-7.138287300E0,-5.563111138E0,9.050048624E0
6.083628792E0,6.401338738E-1,-6.544662180E0,-6.053849237E0,8.938202560E0
6.093564792E0,7.943658811E-1,-6.103285691E0,-6.176023884E0,8.719196316E0
6.103499792E0,7.906122610E-1,-6.155012500E0,-6.176989844E0,8.755823785E0
6.113435792E0,6.779875785E-1,-6.208318056E0,-6.212131611E0,8.808714968E0
6.123370792E0,3.801032236E-1,-5.846042701E0,-6.313197225E0,8.612615916E0
6.133306792E0,8.445805997E-2,-5.579085732E0,-6.254905747E0,8.381955420E0
6.143242792E0,1.048908627E-1,-5.459064614E0,-6.037109243E0,8.139967848E0
6.153177792E0,4.048427930E-1,-5.285439146E0,-6.018219813E0,8.019896157E0
6.163113792E0,9.110827374E-1,-5.290484709E0,-6.395462286E0,8.349924435E0
6.173048792E0,1.358927124E0,-5.138422603E0,-6.793600370E0,8.625721753E0
6.182984792E0,1.576402908E0,-4.876367354E0,-7.187047817E0,8.827098109E0
6.192919792E0,1.752235407E0,-4.669845452E0,-7.326947129E0,8.863517343E0
6.202855792E0,1.982932330E0,-4.346824209E0,-7.160748795E0,8.608322986E0
6.212790792E0,2.589631825E0,-4.000865509E0,-6.684615287E0,8.209579730E0
6.222726792E0,3.561226813E0,-3.446793879E0,-5.979699526E0,7.766564934E0
6.232661792E0,4.730718475E0,-2.694664775E0,-5.191779031E0,7.522997078E0
6.242597792E0,5.716036878E0,-1.916362365E0,-4.355169940E0,7.437272854E0
6.252532792E0,6.415801241E0,-1.265200058E0,-3.572276296E0,7.451469297E0
6.262468792E0,6.734041800E0,-9.613611907E-1,-3.111697551E0,7.480253736E0
6.272403792E0,6.834635544E0,-9.911074385E-1,-3.023698125E0,7.539050824E0
6.282339792E0,6.957277384E0,-9.934015936E-1,-3.120916271E0,7.689647177E0
6.292274792E0,7.180852692E0,-9.283086348E-1,-2.896217129E0,7.798363672E0
6.302210792E0,7.673918567E0,-7.205928768E-1,-2.310696834E0,8.046589347E0
6.312145792E0,8.043871901E0,-5.213456413E-1,-1.587971624E0,8.215675889E0
6.322081792E0,8.181303688E0,-5.886996453E-1,-7.609472895E-1,8.237677955E0
6.332016792E0,8.139087961E0,-6.692562237E-1,-1.369757044E-1,8.167705863E0
6.341952792E0,7.986605440E0,-7.320366088E-1,5.076038074E-1,8.036131263E0
6.351887792E0,7.818095117E0,-6.168821284E-1,1.298053808E0,7.949094194E0
6.361823792E0,7.749420739E0,-3.347139198E-1,2.028074005E0,8.017396046E0
6.371758792E0,8.181117747E0,-1.822903101E-1,2.602302157E0,8.586960688E0
6.381694792E0,8.377633894E0,-2.688100983E-1,3.420697755E0,9.053075812E0
6.391629792E0,8.051584378E0,-4.163680936E-1,4.310867926E0,9.142480827E0
6.401565792E0,7.465791603E0,-4.591683966E-1,5.003621478E0,8.999172616E0
6.411500792E0,6.885601045E0,-4.092156333E-1,5.543725864E0,8.849398604E0
6.421436792E0,6.881404499E0,-1.752904621E-1,5.737494405E0,8.961210670E0
6.431372792E0,7.027449819E0,1.437625676E-1,5.637508771E0,9.010395318E0
6.441307792E0,6.946836011E0,2.245400977E-1,5.761915301E0,9.028212268E0
6.451243792E0,6.753365094E0,7.731247008E-2,6.251352394E0,9.202897591E0
6.461178792E0,6.213464191E0,-1.606268147E-1,7.085574067E0,9.425407051E0
6.471114792E0,5.357574492E0,-4.748082367E-1,7.978895302E0,9.622464213E0
6.481049792E0,4.554502106E0,-8.038716996E-1,8.502697651E0,9.679130461E0
6.490985792E0,4.023045752E0,-9.656936851E-1,8.493163766E0,9.447290202E0
6.500920792E0,3.675873170E0,-1.109931631E0,8.291198013E0,9.137174415E0
6.510856792E0,3.185645533E0,-1.526805363E0,7.830911044E0,8.590846283E0
6.520791792E0,2.450021950E0,-2.301649438E0,7.247569422E0,7.989208986E0
6.530727792E0,1.616511884E0,-3.222026617E0,6.928376936E0,7.810055900E0
6.540662792E0,5.989039868E-1,-4.007472278E0,6.952034186E0,8.046694934E0
6.550598792E0,-3.736978912E-1,-4.435751004E0,7.249939883E0,8.507477029E0
6.560533792E0,-1.047098914E0,-4.805914253E0,7.548156068E0,9.009322281E0
6.570469792E0,-1.585047432E0,-5.105293449E0,7.706563572E0,9.379100098E0
6.580404792E0,-2.066883729E0,-5.268575191E0,7.743491662E0,9.591222864E0
6.590340792E0,-2.322638018E0,-5.570769237E0,7.658908764E0,9.751256366E0
6.600275792E0,-2.434685873E0,-6.091604124E0,7.435662071E0,9.915866403E0
6.610211792E0,-2.687224778E0,-6.185093501E0,7.245670246E0,9.898297628E0
6.620146792E0,-2.567702428E0,-6.025034743E0,6.940972424E0,9.543125148E0
6.630082792E0,-2.160035137E0,-5.961403003E0,6.642061005E0,9.182649506E0
6.640017792E0,-1.928767818E0,-5.745412704E0,6.516313124E0,8.899002707E0
6.649953792E0,-1.835350361E0,-5.594432334E0,6.527328694E0,8.790460964E0
6.659888792E0,-1.609422719E0,-5.801905578E0,6.542046136E0,8.891047040E0
6.669824792E0,-1.478270842E0,-6.058424683E0,6.483432477E0,8.995815194E0
6.679760792E0,-1.415630790E0,-6.183955632E0,6.649466504E0,9.190251497E0
6.689695792E0,-1.220624979E0,-6.635603340E0,6.799347598E0,9.578741294E0
6.699630792E0,-1.082659048E0,-7.256741949E0,6.639271299E0,9.895068353E0
6.709566792E0,-1.247492350E0,-7.536397902E0,6.465711905E0,1.000794489E1
6.719502792E0,-1.475456577E0,-7.728111146E0,6.037585207E0,9.917313604E0
6.729437792E0,-1.654577258E0,-7.922446867E0,5.238165577E0,9.640600026E0
6.739373792E0,-1.880137110E0,-7.987897675E0,4.124195566E0,9.184248139E0
6.749308792E0,-2.170113398E0,-7.875315385E0,2.968438429E0,8.691467728E0
6.759244792E0,-2.495171226E0,-7.600789195E0,2.039895321E0,8.255849366E0
6.769179792E0,-2.759232946E0,-7.234178714E0,1.644620619E0,7.915269111E0
6.779115792E0,-2.902621000E0,-6.975333586E0,1.812636852E0,7.769564960E0
6.789050792E0,-3.009948397E0,-6.992022709E0,2.072283633E0,7.889393537E0
6.798986792E0,-3.152839730E0,-7.143602419E0,1.923546254E0,8.041858248E0
6.808921792E0,-2.847100518E0,-7.413773603E0,1.547047547E0,8.090944105E0
6.818857792E0,-2.476511006E0,-7.855987414E0,9.876029098E-1,8.296083685E0
6.828792792E0,-2.230377141E0,-8.419501712E0,2.597309804E-1,8.713785140E0
6.838728792E0,-2.076500937E0,-8.635862140E0,-4.181034011E-1,8.891837914E0
6.848663792E0,-2.063637794E0,-8.503609816E0,-1.002550147E0,8.807672090E0
6.858599792E0,-2.168796020E0,-8.296442966E0,-1.481989671E0,8.702352294E0
6.868534792E0,-2.116332609E0,-8.097285631E0,-1.532940554E0,8.508513680E0
6.878470792E0,-1.770549910E0,-8.044568304E0,-1.355275245E0,8.347855843E0
6.888405792E0,-1.535938568E0,-8.072882277E0,-1.501777818E0,8.353793878E0
6.898341792E0,-1.466704903E0,-8.174578221E0,-1.851935989E0,8.509090390E0
6.908276792E0,-1.378179520E0,-8.185360487E0,-2.151880610E0,8.574969110E0
6.918212792E0,-1.342324101E0,-8.112509442E0,-2.327948459E0,8.545992480E0
6.928147792E0,-1.360770459E0,-8.166692081E0,-2.627038803E0,8.686074410E0
6.938083792E0,-1.275830296E0,-8.194079270E0,-3.142324097E0,8.868194786E0
6.948018792E0,-7.663378376E-1,-7.907132424E0,-3.636402125E0,8.736900896E0
6.957954792E0,-4.322583407E-2,-7.435294865E0,-4.181411156E0,8.530514490E0
6.967889792E0,3.108017313E-1,-6.955903873E0,-4.635012711E0,8.364480811E0
6.977825792E0,4.410417357E-1,-6.537312230E0,-4.798866019E0,8.121581378E0
6.987761792E0,4.115787855E-1,-6.418029031E0,-5.083598524E0,8.197772117E0
6.997696792E0,2.203096372E-1,-6.373618843E0,-5.548438720E0,8.453208014E0
7.007632792E0,1.959372729E-2,-6.349072816E0,-5.837826778E0,8.625040929E0
7.017567792E0,-4.993261966E-1,-6.244722236E0,-6.105053889E0,8.747431935E0
7.027503792E0,-9.747916603E-1,-6.106212223E0,-6.306008658E0,8.831862300E0
7.037438792E0,-1.130058040E0,-5.920930331E0,-6.392748009E0,8.786448330E0
7.047374792E0,-1.135915781E0,-5.715248673E0,-6.350742781E0,8.618950396E0
7.057309792E0,-7.825697082E-1,-5.363455036E0,-6.529853522E0,8.486345049E0
7.067245792E0,1.435082138E-1,-5.011547964E0,-6.951910810E0,8.571188454E0
7.077180792E0,9.575143075E-1,-4.729992251E0,-7.391134354E0,8.827147182E0
7.087116792E0,1.421095598E0,-4.518860403E0,-7.573272783E0,8.932752805E0
7.097051792E0,1.431103692E0,-4.436715209E0,-7.393715315E0,8.740682227E0
7.106987792E0,1.247229810E0,-4.386824427E0,-7.001749552E0,8.356094036E0
7.116922792E0,1.462237777E0,-4.266695720E0,-6.342015227E0,7.782286863E0
7.126858792E0,2.228655136E0,-3.875679253E0,-5.824279949E0,7.342345015E0
7.136793792E0,3.017619944E0,-3.433956901E0,-5.496330088E0,7.148967378E0
7.146729792E0,3.892093264E0,-2.847596362E0,-4.741074479E0,6.762764393E0
7.156664792E0,5.070998944E0,-2.149525059E0,-3.650579869E0,6.607739527E0
7.166600792E0,6.153834286E0,-1.356721408E0,-2.299019945E0,6.707895505E0
7.176535792E0,6.993501470E0,-5.290958333E-1,-9.370244944E-1,7.075805263E0
7.186471792E0,7.537275569E0,-5.951310709E-2,-1.608925706E-1,7.539227496E0
7.196406792E0,7.594322759E0,1.362814207E-1,2.967637360E-2,7.595603431E0
7.206342792E0,7.464028083E0,3.766371404E-1,-9.877584457E-2,7.474177375E0
7.216277792E0,7.698346480E0,6.130821691E-1,-3.410628265E-1,7.730247869E0
7.226213792E0,8.331989359E0,7.495333783E-1,-2.508204085E-1,8.369394115E0
7.236149792E0,8.797532390E0,8.571137410E-1,-9.704623818E-3,8.839191949E0
7.246084792E0,8.950206699E0,9.920554183E-1,4.386382377E-1,9.015696169E0
7.256020792E0,8.839283264E0,9.883143698E-1,1.046493727E0,8.955715663E0
7.265955792E0,8.573092865E0,6.553462824E-1,1.869361861E0,8.798972314E0
7.275891792E0,8.738193092E0,3.415373281E-1,2.717582352E0,9.157397015E0
7.285826792E0,8.977135466E0,2.646131131E-1,3.488528380E0,9.634770965E0
7.295762792E0,9.059514549E0,2.621964589E-1,4.499647622E0,1.011881315E1
7.305697792E0,8.954718411E0,1.326806322E-1,5.597591584E0,1.056113713E1
7.315633792E0,8.452973514E0,2.950505018E-3,6.912680671E0,1.091961190E1
7.325568792E0,7.788328112E0,-7.524314046E-2,8.341016291E0,1.141211063E1
7.335504792E0,7.132330742E0,-2.347019738E-1,9.509982288E0,1.188970100E1
7.345439792E0,6.762138256E0,-2.380980366E-1,1.009834842E1,1.215565076E1
7.355375792E0,6.206342867E0,-2.623461476E-1,1.013048121E1,1.188335672E1
7.365310792E0,5.529973798E0,-4.394045153E-1,9.738770973E0,1.120791446E1
7.375246792E0,4.751812890E0,-8.331291202E-1,8.667018444E0,9.919225705E0
7.385181792E0,3.963466718E0,-1.465456669E0,7.192035491E0,8.341582954E0
7.395117792E0,3.303303791E0,-1.992585206E0,6.078624474E0,7.199436592E0
7.405052792E0,2.736976982E0,-2.174244748E0,5.686371614E0,6.674818751E0
7.414988792E0,2.238767311E0,-2.223217810E0,5.680039079E0,6.497508788E0
7.424923792E0,1.684990965E0,-2.362675658E0,5.735317487E0,6.427697682E0
7.434859792E0,9.935635614E-1,-2.930632963E0,5.725538603E0,6.508269387E0
7.444794792E0,2.985664326E-1,-3.494684914E0,5.738690745E0,6.725662498E0
7.454730792E0,-1.896842605E-1,-3.858056622E0,5.996749422E0,7.133132878E0
7.464665792E0,-3.679231811E-1,-4.536677454E0,6.132944523E0,7.637396043E0
7.474601792E0,-5.249875796E-1,-5.053961327E0,5.983083310E0,7.849549219E0
7.484537792E0,-8.956022340E-1,-5.371478586E0,5.754900981E0,7.922990020E0
7.494472792E0,-1.320829298E0,-6.088050771E0,5.293776106E0,8.175146340E0
7.504408792E0,-1.734896366E0,-6.543414384E0,4.889653398E0,8.350739342E0
7.514343792E0,-1.997736311E0,-6.658414498E0,4.964857947E0,8.542555146E0
7.524279792E0,-2.136892442E0,-6.886229036E0,5.275415264E0,8.934006149E0
7.534214792E0,-2.227019085E0,-6.728233761E0,5.809780608E0,9.164185412E0
7.544150792E0,-2.196173269E0,-6.249922165E0,6.467650257E0,9.258250588E0
7.554085792E0,-2.110659494E0,-6.074916170E0,6.869001385E0,9.409711473E0
7.564021792E0,-2.051965143E0,-6.285103108E0,6.686889269E0,9.403593468E0
7.573956792E0,-2.069367626E0,-6.736429803E0,5.774085111E0,9.110533889E0
7.583892792E0,-2.141502972E0,-7.443741168E0,4.754383911E0,9.088425823E0
7.593827792E0,-2.223551102E0,-7.769674909E0,4.282427654E0,9.146103777E0
7.603763792E0,-2.210874923E0,-7.525524420E0,4.222068601E0,8.907712893E0
7.613698792E0,-1.890001363E0,-7.252343674E0,4.427854339E0,8.704854276E0
7.623634792E0,-1.632762465E0,-7.256143194E0,4.543482444E0,8.715547031E0
7.633569792E0,-1.708465489E0,-7.084390590E0,4.436333386E0,8.531617565E0
7.643505792E0,-1.872398905E0,-6.837723459E0,4.240407808E0,8.260835196E0
7.653440792E0,-1.921360565E0,-6.819089552E0,4.024047380E0,8.147672432E0
7.663376792E0,-2.041219715E0,-6.930881299E0,3.736280755E0,8.134094134E0
7.673311417E0,-2.211130446E0,-7.008479698E0,3.396035369E0,8.095736023E0
7.683247417E0,-2.191875565E0,-7.160362294E0,3.104701942E0,8.106434532E0
7.693182417E0,-1.975438539E0,-7.351037073E0,2.769089305E0,8.099874014E0
7.703118417E0,-1.683721535E0,-7.371795858E0,1.886482508E0,7.793401608E0
7.713054417E0,-1.468206614E0,-7.250325215E0,7.356311846E-1,7.433976031E0
7.722989417E0,-1.295823973E0,-7.014631553E0,-6.934856236E-2,7.133654380E0
7.732925417E0,-1.190227351E0,-6.695786977E0,-4.864719701E-1,6.818127262E0
7.742860417E0,-1.161432153E0,-6.590294436E0,-4.532118380E-1,6.707183191E0
7.752796417E0,-1.257843676E0,-6.446710208E0,-7.568402052E-2,6.568711540E0
7.762731417E0,-1.464038427E0,-6.356992285E0,3.554434687E-1,6.533077337E0
7.772667417E0,-1.651713291E0,-6.569194758E0,4.715142077E-1,6.790051709E0
7.782602417E0,-1.930880709E0,-6.778352001E0,4.173806852E-1,7.060351464E0
7.792538417E0,-2.241891186E0,-6.884943234E0,-1.196047962E-2,7.240763943E0
7.802473417E0,-2.109838252E0,-7.154830828E0,-8.289433908E-1,7.505342682E0
7.812409417E0,-1.813593164E0,-7.287988300E0,-1.759464612E0,7.713598988E0
7.822344417E0,-1.657193010E0,-7.098196451E0,-2.705790272E0,7.775087300E0
7.832280417E0,-1.486026881E0,-6.999918205E0,-3.424662752E0,7.933186354E0
7.842215417E0,-1.359489626E0,-6.917876506E0,-3.574477188E0,7.904562896E0
7.852151417E0,-1.455068505E0,-6.758648053E0,-3.335761393E0,7.676187331E0
7.862086417E0,-1.674897501E0,-6.741992844E0,-3.049353368E0,7.586718996E0
7.872022417E0,-2.018446272E0,-6.766840587E0,-2.855553837E0,7.616983957E0
7.881957417E0,-2.276609321E0,-6.719800322E0,-2.746787440E0,7.608121162E0
7.891893417E0,-1.917119287E0,-6.692893190E0,-2.955530408E0,7.563420232E0
7.901828417E0,-1.240615732E0,-6.541331021E0,-3.403472443E0,7.477416906E0
7.911764417E0,-4.868637335E-1,-6.189151468E0,-4.044059476E0,7.409254297E0
7.921699417E0,1.097069219E-1,-5.782397513E0,-4.939426067E0,7.605661475E0
7.931635417E0,3.244041091E-1,-5.570130721E0,-5.908872203E0,8.126891471E0
7.941571417E0,2.762528729E-1,-5.459841124E0,-6.583771867E0,8.557583347E0
7.951506417E0,4.651372343E-2,-5.216706880E0,-6.821698580E0,8.587884822E0
7.961442417E0,4.853305936E-2,-4.808312781E0,-6.641242980E0,8.199288724E0
7.971377417E0,4.289751291E-1,-4.281029584E0,-6.274419075E0,7.607862295E0
7.981313417E0,7.278672516E-1,-3.873999056E0,-6.117780354E0,7.277698529E0
7.991248417E0,9.255545962E-1,-3.598801020E0,-6.309190128E0,7.322151334E0
8.001184417E0,1.124717778E0,-3.455950618E0,-6.577446349E0,7.514744522E0
8.011119417E0,1.273701909E0,-3.479556997E0,-6.834116312E0,7.773980912E0
8.021055417E0,1.525257313E0,-3.370578346E0,-6.975124841E0,7.895541451E0
8.030990417E0,1.891358501E0,-3.162613351E0,-7.116231603E0,8.013745218E0
8.040926417E0,2.279415400E0,-3.002865665E0,-7.108112159E0,8.046004924E0
8.050861417E0,2.862700304E0,-2.728147101E0,-7.102715179E0,8.129354375E0
8.060797417E0,3.445281204E0,-2.511813278E0,-7.057624376E0,8.245558219E0
8.070732417E0,4.303769406E0,-2.295936708E0,-6.618364579E0,8.221709443E0
8.080668417E0,5.375257641E0,-2.000708743E0,-5.640086224E0,8.044053878E0
8.090603417E0,6.479848133E0,-1.520675873E0,-4.464680688E0,8.014627913E0
8.100539417E0,7.086848175E0,-9.669031817E-1,-3.226412905E0,7.846531658E0
8.110474417E0,7.047259601E0,-7.051350313E-1,-2.144865121E0,7.400103357E0
8.120410417E0,6.776505450E0,-5.648445404E-1,-1.215308690E0,6.907752940E0
8.130345417E0,6.570722051E0,-2.751196826E-1,-4.371594769E-1,6.590992908E0
8.140281417E0,6.857297598E0,1.277194524E-1,-7.220083416E-2,6.858866930E0
8.150216417E0,7.153083680E0,4.155436362E-1,-9.462666035E-2,7.165768406E0
8.160152417E0,7.016816073E0,5.904644081E-1,-5.101344824E-2,7.041800792E0
8.170087417E0,7.215502707E0,5.454920107E-1,2.343143034E-1,7.239885637E0
8.180023417E0,7.424540666E0,4.758303300E-1,9.947435296E-1,7.505979836E0
8.189958417E0,7.382150107E0,3.389844337E-1,1.937443916E0,7.639681903E0
8.199894417E0,7.182593992E0,-3.582676739E-2,2.968026785E0,7.771751605E0
8.209830417E0,7.288080686E0,-3.402085483E-1,4.270142069E0,8.453755097E0
8.219765417E0,7.269515192E0,-3.404854140E-1,5.646162651E0,9.210913859E0
8.229701417E0,7.171586024E0,-1.775480720E-1,6.757250569E0,9.855130880E0
8.239636417E0,7.172219862E0,1.909817576E-2,7.799593357E0,1.059597844E1
8.249572417E0,6.986933877E0,-1.428153187E-2,8.551955180E0,1.104325072E1
8.259507417E0,6.646172767E0,-2.788785651E-1,8.644106714E0,1.090733545E1
8.269443417E0,5.919924025E0,-6.382499009E-1,8.387652513E0,1.028618384E1
8.279378417E0,5.081449088E0,-7.583332917E-1,7.872733254E0,9.400857573E0
8.289314417E0,4.416577399E0,-4.985724905E-1,7.481216558E0,8.701915401E0
8.299249417E0,4.037741559E0,-1.142177564E-1,7.523103672E0,8.538939715E0
8.309185417E0,3.965502718E0,1.709047580E-1,7.735415488E0,8.694312682E0
8.319120417E0,4.050762724E0,2.693987668E-1,7.705854889E0,8.709848099E0
8.329056417E0,3.902503062E0,1.891068479E-1,7.457576265E0,8.419069741E0
8.338991417E0,3.594006304E0,-1.898146534E-1,7.138975518E0,7.994866000E0
8.348927417E0,3.025241205E0,-9.048279709E-1,6.629585971E0,7.343174256E0
8.358862417E0,2.453750719E0,-1.871346990E0,6.050930892E0,6.792392569E0
8.368798417E0,1.874295157E0,-2.795875108E0,5.458613793E0,6.412984056E0
8.378733417E0,1.038823934E0,-3.561596357E0,4.891618647E0,6.139385699E0
8.388669417E0,2.214094985E-1,-4.135303814E0,4.635378454E0,6.215826028E0
8.398604417E0,-4.137723684E-1,-4.669943977E0,4.926224223E0,6.800534495E0
8.408540417E0,-9.782233912E-1,-5.066574941E0,5.668798392E0,7.665662257E0
8.418475417E0,-1.509619519E0,-5.497765580E0,6.512138797E0,8.655190880E0
8.428411417E0,-1.993749679E0,-6.074423250E0,7.041652706E0,9.510968849E0
8.438347417E0,-2.686435404E0,-6.347237960E0,7.246464298E0,1.000078046E1
8.448282417E0,-3.112465290E0,-6.733581625E0,7.073105464E0,1.024975037E1
8.458218417E0,-3.137576743E0,-7.062004525E0,6.531281412E0,1.011800043E1
8.468153417E0,-3.064202957E0,-7.038181799E0,5.882550377E0,9.671077589E0
8.478089417E0,-2.829938355E0,-7.036218889E0,5.420209866E0,9.321781071E0
8.488024417E0,-2.460787843E0,-6.935568427E0,5.292053517E0,9.064403821E0
8.497960417E0,-2.313890584E0,-6.571899095E0,5.594022444E0,8.935157215E0
8.507895417E0,-2.094381430E0,-6.426133271E0,6.160196056E0,9.144924158E0
8.517831417E0,-2.141682481E0,-6.553658121E0,6.943981401E0,9.785505419E0
8.527766417E0,-2.352477529E0,-6.781548089E0,7.494474535E0,1.037741266E1
8.537702417E0,-2.388010181E0,-7.565485461E0,7.202302033E0,1.071505098E1
8.547637417E0,-2.639366487E0,-8.384801411E0,6.103003271E0,1.070129894E1
8.557573417E0,-3.153894567E0,-8.672748715E0,4.621584873E0,1.032098193E1
8.567508417E0,-3.297252215E0,-8.688656650E0,3.157820973E0,9.815113848E0
8.577444417E0,-2.922739807E0,-8.500291522E0,2.149240007E0,9.242109962E0
8.587379417E0,-2.579519943E0,-8.052862580E0,1.679374714E0,8.621068280E0
8.597315417E0,-2.256686396E0,-7.603530954E0,1.610048372E0,8.093118819E0
8.607250417E0,-2.000985609E0,-7.210398672E0,1.912943498E0,7.723544863E0
8.617186417E0,-1.908755722E0,-6.942458786E0,2.368487790E0,7.579631707E0
8.627122417E0,-1.991333025E0,-6.828430479E0,2.803585539E0,7.645453675E0
8.637057417E0,-2.249010171E0,-6.965780990E0,2.917886326E0,7.879988081E0
8.646993417E0,-2.681283130E0,-7.323968557E0,2.569315674E0,8.211648902E0
8.656928417E0,-3.021263929E0,-7.661823016E0,1.929474161E0,8.458985649E0
8.666864417E0,-3.172525551E0,-7.896634333E0,1.204724645E0,8.594946982E0
8.676800292E0,-3.030035337E0,-7.997447932E0,6.752130747E-1,8.578822779E0
8.686736292E0,-2.621863140E0,-8.065197281E0,2.176579249E-1,8.483451449E0
8.696671292E0,-2.319364747E0,-8.082240161E0,-2.978711987E-1,8.413726053E0
8.706607292E0,-2.052545187E0,-8.018476274E0,-9.196728820E-1,8.327947029E0
8.716542292E0,-1.736850213E0,-7.928036805E0,-1.596872256E0,8.271663511E0
8.726478292E0,-1.556006650E0,-7.749867466E0,-2.169969556E0,8.196973241E0
8.736413292E0,-1.619270600E0,-7.527135327E0,-2.456636320E0,8.081761289E0
8.746349292E0,-1.656585191E0,-7.454702359E0,-2.386099604E0,8.000645791E0
8.756284292E0,-1.616071296E0,-7.502974048E0,-2.135952795E0,7.966718291E0
8.766220292E0,-1.291910139E0,-7.470123221E0,-2.159336395E0,7.882544412E0
8.776155292E0,-6.999549830E-1,-7.243293938E0,-2.544418230E0,7.709040678E0
8.786091292E0,-2.758017603E-1,-6.873529469E0,-3.217851997E0,7.594474665E0
8.796026292E0,-1.222141162E-1,-6.608275793E0,-3.881081788E0,7.664661838E0
8.805962292E0,-1.188803262E-1,-6.456195561E0,-4.464771904E0,7.850527486E0
8.815897292E0,-3.151602459E-1,-6.415476136E0,-4.745846976E0,7.986283463E0
8.825833292E0,-5.790129286E-1,-6.380806825E0,-4.801960366E0,8.006795555E0
8.835768292E0,-8.139616549E-1,-6.275072794E0,-4.837814323E0,7.965144039E0
8.845704292E0,-6.378066820E-1,-6.071763352E0,-5.213609025E0,8.028376338E0
8.855640292E0,2.364321649E-3,-5.699242505E0,-5.962780023E0,8.248400834E0
8.865575292E0,6.528381193E-1,-5.126077961E0,-6.685466641E0,8.449753670E0
8.875511292E0,9.387979549E-1,-4.689689732E0,-7.313333641E0,8.738385453E0
8.885446292E0,1.018721207E0,-4.377025663E0,-7.815100758E0,9.015095474E0
8.895382292E0,8.914530498E-1,-4.081977500E0,-7.988760724E0,9.015404969E0
8.905317292E0,7.778872579E-1,-3.772517120E0,-7.726915975E0,8.633783903E0
8.915253292E0,6.807445407E-1,-3.543944782E0,-7.194587801E0,8.048916162E0
8.925188292E0,6.543256509E-1,-3.323232272E0,-6.518060857E0,7.345551860E0
8.935124292E0,8.452044976E-1,-3.170405935E0,-5.946790227E0,6.791918612E0
8.945059292E0,1.228731558E0,-3.006076371E0,-5.769025515E0,6.620266746E0
8.954995292E0,1.927869685E0,-2.668485329E0,-5.880871641E0,6.739595443E0
8.964930292E0,2.665752048E0,-2.262548522E0,-5.880068818E0,6.841094145E0
8.974866292E0,3.449157908E0,-1.859175426E0,-5.722181132E0,6.935169821E0
8.984801292E0,3.994210208E0,-1.348724025E0,-5.429292930E0,6.873863063E0
8.994737292E0,4.229982222E0,-7.921766835E-1,-4.995818954E0,6.593822906E0
9.004672292E0,4.437047331E0,-5.334023076E-1,-4.449791923E0,6.306548596E0
9.014608292E0,4.568873393E0,-5.270248957E-1,-3.671363797E0,5.884834021E0
9.024543292E0,4.804454203E0,-3.618661965E-1,-2.853482169E0,5.599650688E0
9.034479292E0,5.203050708E0,-1.668698868E-1,-2.328470031E0,5.702749768E0
9.044414292E0,5.589867997E0,-8.908510789E-2,-1.849978341E0,5.888716349E0
9.054350292E0,5.758114026E0,-1.956494437E-1,-1.495056444E0,5.952255842E0
9.064285292E0,5.831333445E0,-4.048544875E-1,-1.094422769E0,5.946941912E0
9.074221292E0,6.131578029E0,-4.311224825E-1,-6.728806204E-1,6.183436265E0
9.084157292E0,6.621472374E0,-1.194992539E-1,-1.430901378E-1,6.624096260E0
9.094092292E0,7.360669776E0,3.539508207E-1,3.067385012E-1,7.375556198E0
9.104028292E0,8.110823690E0,5.861165647E-1,5.438594681E-1,8.150139672E0
9.113963292E0,8.487047578E0,6.307150327E-1,1.371959106E0,8.620327710E0
9.123899292E0,8.233896469E0,4.954968551E-1,2.734317083E0,8.690170201E0
9.133834292E0,7.952073539E0,5.018811375E-2,4.265229823E0,9.023867123E0
9.143770292E0,8.063963519E0,-3.356740326E-1,5.914685504E0,1.000618255E1
9.153705292E0,8.154558524E0,-5.701310080E-1,7.078742765E0,1.081343947E1
9.163641292E0,7.948885052E0,-9.053328779E-1,7.725650053E0,1.112160375E1
9.173576292E0,7.342570889E0,-1.056785996E0,8.239229130E0,1.108670558E1
9.183512292E0,6.694622211E0,-1.056238989E0,8.843889116E0,1.114217133E1
9.193447292E0,6.064135659E0,-1.065299542E0,9.264464135E0,1.112379882E1
9.203383292E0,5.182712923E0,-1.032932864E0,9.327191895E0,1.072025989E1
9.213318292E0,4.169557680E0,-1.015559617E0,9.087602819E0,1.004993023E1
9.223254292E0,3.220398459E0,-1.078517173E0,8.784709446E0,9.418348347E0
9.233189292E0,2.448871218E0,-1.212081027E0,8.522496908E0,8.949808054E0
9.243125292E0,1.899536417E0,-1.299222667E0,8.496946914E0,8.803086107E0
9.253060292E0,1.692965398E0,-1.442720648E0,8.522358329E0,8.807846853E0
9.262996292E0,1.463411897E0,-1.786429632E0,8.309396303E0,8.624324445E0
9.272932292E0,1.336033228E0,-2.335968208E0,7.541006092E0,8.006778699E0
9.282867292E0,1.242181908E0,-2.987726639E0,6.638495373E0,7.385062436E0
9.292803292E0,8.526246142E-1,-3.623721269E0,6.113797231E0,7.157991418E0
9.302738292E0,2.582048571E-1,-4.144319928E0,6.025984915E0,7.318097541E0
9.312674292E0,-1.896392369E-1,-4.501122290E0,6.308629380E0,7.752088078E0
9.322609292E0,-6.911046374E-1,-4.783031759E0,6.733289264E0,8.288075937E0
9.332545292E0,-1.112028151E0,-5.107257528E0,7.077728857E0,8.798575558E0
9.342480292E0,-1.376335747E0,-5.343333013E0,7.276351172E0,9.131856008E0
9.352416292E0,-1.543467296E0,-5.483525271E0,7.385560788E0,9.327263738E0
9.362351292E0,-1.735369406E0,-5.801132576E0,7.236375512E0,9.435559162E0
9.372287292E0,-1.865990941E0,-6.237530161E0,6.691765847E0,9.336403743E0
9.382222292E0,-1.918528758E0,-6.612693949E0,5.947635149E0,9.098507445E0
9.392158292E0,-1.860816740E0,-7.061842557E0,5.453916140E0,9.114683785E0
9.402093292E0,-1.936832882E0,-7.281753414E0,5.457855409E0,9.303947553E0
9.412029292E0,-2.162619606E0,-7.220489212E0,5.713557658E0,9.458177897E0
9.421964292E0,-2.085590726E0,-7.164815533E0,6.069841372E0,9.619108305E0
9.431900292E0,-2.074892076E0,-7.082279745E0,6.252875009E0,9.672761209E0
9.441835292E0,-2.162899688E0,-7.196322670E0,6.272238649E0,9.788062765E0
9.451771292E0,-2.126435866E0,-7.658163829E0,6.036526276E0,9.980423448E0
9.461706292E0,-2.182796301E0,-7.917793068E0,5.758751957E0,1.003091575E1
9.471642292E0,-2.149568036E0,-8.097841702E0,5.255042980E0,9.889952461E0
9.481578292E0,-2.208854125E0,-8.303899920E0,4.382862353E0,9.645894092E0
9.491513292E0,-2.385956932E0,-8.333522499E0,3.310782965E0,9.279098640E0
9.501449292E0,-2.659225386E0,-8.211352530E0,2.401273713E0,8.959012527E0
9.511384292E0,-2.722589615E0,-8.248982286E0,1.705528725E0,8.852515529E0
9.521320292E0,-2.599495201E0,-8.292907155E0,1.218711770E0,8.775815788E0
9.531255292E0,-2.366325490E0,-8.159147419E0,1.011863008E0,8.555410550E0
9.541191292E0,-2.144596149E0,-7.907425954E0,9.347113359E-1,8.246233270E0
9.551126292E0,-1.944365265E0,-7.753258266E0,6.408174133E-1,8.018991021E0
9.561062292E0,-1.935982112E0,-7.521903824E0,3.260734892E-1,7.773891419E0
9.570997292E0,-1.993510528E0,-7.223219277E0,1.517703295E-1,7.494799209E0
9.580933292E0,-2.092787333E0,-7.183313785E0,7.039930701E-2,7.482293219E0
9.590868292E0,-2.306439184E0,-7.195691171E0,-3.333790004E-2,7.556371123E0
9.600804292E0,-2.533254141E0,-7.311918615E0,-7.993026853E-2,7.738728528E0
9.610739292E0,-2.627797771E0,-7.386809753E0,-1.707848901E-1,7.842158308E0
9.620675292E0,-2.654236834E0,-7.559527733E0,-5.422684407E-1,8.030285660E0
9.630610292E0,-2.637384574E0,-7.689468652E0,-1.296788471E0,8.231973389E0
9.640546292E0,-2.532420913E0,-7.687600467E0,-2.088647650E0,8.359115122E0
9.650481292E0,-2.389647402E0,-7.730490963E0,-2.653425533E0,8.515372704E0
9.660417292E0,-2.449627263E0,-7.692509204E0,-3.014709200E0,8.617647193E0
9.670352292E0,-2.606332350E0,-7.565305951E0,-3.072675280E0,8.571356709E0
9.680287583E0,-2.609824600E0,-7.362346172E0,-2.990536518E0,8.364127825E0
9.690223583E0,-2.405768175E0,-7.253894940E0,-3.225548102E0,8.295231936E0
9.700158583E0,-2.206668144E0,-7.242959477E0,-3.635299048E0,8.399121707E0
9.710094583E0,-1.940605506E0,-7.217955614E0,-4.084213475E0,8.517372405E0
9.720029583E0,-1.539729171E0,-7.131383493E0,-4.544583767E0,8.595384695E0
9.729965583E0,-9.918687460E-1,-6.845587379E0,-4.968120693E0,8.516342724E0
9.739900583E0,-5.114503983E-1,-6.472191789E0,-5.302998335E0,8.382877752E0
9.749836583E0,-3.196316117E-1,-6.164675024E0,-5.374284080E0,8.184638775E0
9.759771583E0,-3.624200740E-1,-5.947282562E0,-5.355974693E0,8.011740329E0
9.769707583E0,-5.714244121E-1,-5.844952780E0,-5.356228462E0,7.948533336E0
9.779642583E0,-9.379787600E-1,-5.886243478E0,-5.298983052E0,7.975392644E0
9.789578583E0,-1.317840201E0,-5.871729519E0,-5.384626050E0,8.075153747E0
9.799513583E0,-1.293861062E0,-5.757509424E0,-5.707760729E0,8.209843102E0
9.809449583E0,-8.020795280E-1,-5.499361285E0,-6.215993696E0,8.338158295E0
9.819384583E0,2.332167810E-1,-5.019272135E0,-6.960885701E0,8.584952684E0
9.829320583E0,1.354502243E0,-4.326857722E0,-7.785627868E0,9.009571320E0
9.839255583E0,2.002692996E0,-3.720147702E0,-8.316344549E0,9.328015052E0
9.849191583E0,2.275425260E0,-3.469248941E0,-8.327003438E0,9.303345344E0
9.859126583E0,2.306955786E0,-3.401430010E0,-7.913128744E0,8.916803106E0
9.869062583E0,2.221193504E0,-3.452301663E0,-7.175273278E0,8.266597485E0
9.878997583E0,2.465759731E0,-3.412447042E0,-6.196845235E0,7.491705862E0
9.888933583E0,3.239835774E0,-2.951399350E0,-5.232252288E0,6.825229518E0
9.898869583E0,4.236841006E0,-2.297224265E0,-4.061868925E0,6.302923147E0
9.908804583E0,5.079263399E0,-1.558975866E0,-2.784949878E0,5.998772228E0
9.918740583E0,5.584084516E0,-9.011044639E-1,-1.876143461E0,5.959354279E0
9.928675583E0,5.847556545E0,-7.054836716E-1,-1.465204069E0,6.069468488E0
9.938611583E0,6.112962833E0,-5.732855809E-1,-1.198703767E0,6.255706329E0
9.948546583E0,6.468592828E0,-1.741316170E-1,-1.120142332E0,6.567170916E0
9.958482583E0,6.563110145E0,2.348453402E-1,-1.172203601E0,6.671103986E0
9.968417583E0,6.633964366E0,3.929081874E-1,-1.016319171E0,6.722853911E0
9.978353583E0,6.832328233E0,2.781733909E-1,-5.984449804E-1,6.864126012E0
9.988288583E0,6.973401666E0,-1.084826611E-2,1.095125020E-2,6.973418703E0
9.998224583E0,7.346736445E0,-2.349191979E-1,7.193385029E-1,7.385605683E0
1.000815958E1,7.836323812E0,-3.511353864E-1,1.258330164E0,7.944473661E0
1.001809558E1,7.712969781E0,-3.209315939E-1,1.975343814E0,7.968367657E0
1.002803058E1,7.528660866E0,-2.490707754E-1,3.008205927E0,8.111231324E0
1.003796658E1,7.665116168E0,-2.469051129E-1,4.055794837E0,8.675508041E0
1.004790158E1,7.925554662E0,-9.080608964E-2,4.862086115E0,9.298523745E0
1.005783758E1,7.655149004E0,9.509911537E-2,5.314919638E0,9.319802620E0
1.006777258E1,7.281811302E0,1.200433373E-2,5.530272006E0,9.143786327E0
1.007770858E1,6.998986158E0,-2.172895503E-1,5.671893908E0,9.011293053E0
1.008764358E1,6.276243407E0,-5.230015728E-1,5.855451456E0,8.599481013E0
1.009757958E1,5.526319873E0,-6.874697158E-1,6.209679873E0,8.341040107E0
1.010751558E1,5.051148816E0,-6.688887262E-1,6.801045629E0,8.497984358E0
1.011745058E1,4.906235517E0,-5.341957748E-1,7.238767024E0,8.761065009E0
1.012738658E1,4.611396099E0,-4.528428787E-1,7.379715326E0,8.713795898E0
1.013732158E1,4.311132220E0,-6.296094704E-1,7.347914075E0,8.542488534E0
1.014725758E1,3.936834697E0,-7.583324146E-1,7.192250669E0,8.234209444E0
1.015719258E1,3.412775070E0,-8.202640763E-1,6.933436532E0,7.771255303E0
1.016712858E1,2.953471018E0,-9.452661449E-1,6.734131848E0,7.413841844E0
1.017706358E1,2.716967810E0,-1.184179283E0,6.608989154E0,7.243130006E0
1.018699958E1,2.607670485E0,-1.660070717E0,6.226362564E0,6.951501343E0
1.019693458E1,2.174678319E0,-2.202795533E0,5.661083575E0,6.452085027E0
1.020687058E1,1.222491410E0,-2.870810977E0,5.354071425E0,6.196944548E0
1.021680558E1,-3.266079247E-2,-3.455957927E0,5.686213154E0,6.654151483E0
1.022674158E1,-1.431396053E0,-3.729559965E0,6.572870318E0,7.691627683E0
1.023667658E1,-2.560457727E0,-3.715284573E0,7.405955291E0,8.672223303E0
1.024661258E1,-3.119912304E0,-3.673828983E0,7.600689207E0,9.000074923E0
1.025654758E1,-2.977158381E0,-4.088363536E0,6.862730831E0,8.524978762E0
1.026648358E1,-2.785379648E0,-4.843600727E0,5.712049077E0,7.990388754E0
1.027641858E1,-2.947955047E0,-5.337862358E0,4.838682050E0,7.784346953E0
1.028635458E1,-3.164165202E0,-5.857547098E0,4.418739114E0,7.990497781E0
1.029628958E1,-2.988763350E0,-6.350634608E0,4.623933699E0,8.405000246E0
1.030622558E1,-2.607290416E0,-6.451743491E0,5.752932808E0,9.028797998E0
1.031616158E1,-2.367818284E0,-6.574074259E0,7.353722114E0,1.014407437E1
1.032609658E1,-2.174467235E0,-6.937474034E0,8.751523574E0,1.137743462E1
1.033603258E1,-2.205821759E0,-7.175360402E0,9.552176381E0,1.214888967E1
1.034596758E1,-2.214972067E0,-7.161460401E0,9.578356705E0,1.216295743E1
1.035590358E1,-2.047190307E0,-7.345721369E0,9.029167500E0,1.181848029E1
1.036583858E1,-2.160810478E0,-7.760146286E0,7.953458160E0,1.132017972E1
1.037577458E1,-2.368418793E0,-8.410723872E0,6.530758671E0,1.090873469E1
1.038570958E1,-2.425032997E0,-8.931302651E0,5.444803839E0,1.073754352E1
1.039564558E1,-2.414119461E0,-9.104250426E0,4.820440491E0,1.058073698E1
1.040558058E1,-2.407325874E0,-9.193523376E0,4.339442684E0,1.044733711E1
1.041551658E1,-2.472992737E0,-9.046554780E0,4.126126317E0,1.024601214E1
1.042545158E1,-2.448022202E0,-8.786109270E0,4.072540094E0,9.988699196E0
1.043538758E1,-2.399236836E0,-8.508725545E0,4.140247343E0,9.761987290E0
1.044532258E1,-2.477288686E0,-8.188007521E0,4.296103706E0,9.572718185E0
1.045525858E1,-2.523284054E0,-8.001995312E0,4.530139682E0,9.535253375E0
1.046519358E1,-2.407734886E0,-7.998330277E0,4.693526675E0,9.581214284E0
1.047512958E1,-2.312872291E0,-8.221651815E0,4.369653493E0,9.593685864E0
1.048506558E1,-2.210197523E0,-8.559094630E0,3.318033512E0,9.442055940E0
1.049500058E1,-2.096264526E0,-8.690034839E0,1.810693823E0,9.120835630E0
1.050493658E1,-2.200641126E0,-8.663721784E0,3.385058391E-1,8.945249170E0
1.051487158E1,-2.353308857E0,-8.631015968E0,-9.183058029E-1,8.993096506E0
1.052480758E1,-2.509382883E0,-8.591340855E0,-2.007273120E0,9.172637872E0
1.053474258E1,-2.689607226E0,-8.330605908E0,-2.669347501E0,9.151961424E0
1.054467858E1,-2.785531676E0,-8.058295813E0,-2.779580964E0,8.967797302E0
1.055461358E1,-2.796180625E0,-7.956498712E0,-2.729801279E0,8.864328111E0
1.056454958E1,-2.638553432E0,-7.906423157E0,-2.435274103E0,8.683550616E0
1.057448458E1,-2.588219138E0,-7.844385953E0,-2.195437104E0,8.547117254E0
1.058442058E1,-2.690779885E0,-7.848977187E0,-2.535879541E0,8.676256354E0
1.059435558E1,-2.746005375E0,-7.984757136E0,-3.143539149E0,9.009923996E0
1.060429158E1,-2.716702346E0,-8.144796597E0,-3.713266406E0,9.354492539E0
1.061422658E1,-2.752567998E0,-8.031282846E0,-4.093840916E0,9.425373636E0
1.062416258E1,-2.823710486E0,-7.803576481E0,-4.284361328E0,9.339427112E0
1.063409758E1,-2.863283272E0,-7.696344393E0,-4.341872787E0,9.288916374E0
1.064403358E1,-2.827630167E0,-7.557264860E0,-4.303530840E0,9.144841290E0
1.065396858E1,-2.990738832E0,-7.412752680E0,-4.241772548E0,9.049091413E0
1.066390458E1,-3.297667952E0,-7.386915588E0,-3.950316037E0,9.002562559E0
1.067384017E1,-3.441186691E0,-7.501973589E0,-3.539003885E0,8.980307460E0
1.068377517E1,-3.167895433E0,-7.478117534E0,-3.306924680E0,8.768896975E0
1.069371117E1,-2.501864533E0,-7.188320755E0,-3.245267837E0,8.274239830E0
1.070364617E1,-1.782655839E0,-6.767472671E0,-3.496977607E0,7.823388050E0
1.071358217E1,-1.365912208E0,-6.411073183E0,-3.965051021E0,7.660888011E0
1.072351717E1,-1.008420167E0,-6.164111352E0,-4.557388292E0,7.731944648E0
1.073345317E1,-6.875770122E-1,-5.828149636E0,-5.167631199E0,7.819495031E0
1.074338817E1,-2.903160113E-1,-5.373214039E0,-5.549526887E0,7.730003956E0
1.075332417E1,2.375080526E-2,-5.045279381E0,-5.770669168E0,7.665248253E0
1.076325917E1,3.611024040E-1,-4.820356291E0,-5.910575497E0,7.635517823E0
1.077319517E1,8.406577027E-1,-4.587619566E0,-6.246744204E0,7.795817584E0
1.078313017E1,1.636511700E0,-4.264711760E0,-6.611325701E0,8.035892263E0
1.079306617E1,2.455850455E0,-3.776092692E0,-6.878641105E0,8.222273464E0
1.080300117E1,3.079751873E0,-3.327430573E0,-7.119084460E0,8.440262399E0
1.081293717E1,3.744361022E0,-2.865225717E0,-7.204673079E0,8.610288732E0
1.082287217E1,4.285361202E0,-2.452913106E0,-6.734432395E0,8.350669614E0
1.083280817E1,4.720249035E0,-2.116267558E0,-5.736129080E0,7.724151485E0
1.084274317E1,5.465522279E0,-1.675694185E0,-4.338527595E0,7.176538613E0
1.085267917E1,6.776140584E0,-1.133713135E0,-3.018050299E0,7.503999886E0
1.086261417E1,8.136265510E0,-5.658656104E-1,-2.078225573E0,8.416533839E0
1.087255017E1,9.206236392E0,-9.548912466E-2,-1.170599710E0,9.280851812E0
1.088248617E1,9.888135173E0,3.092586511E-1,-3.618631268E-1,9.899586004E0
1.089242117E1,1.001837138E1,5.211614540E-1,1.093078494E-1,1.003251327E1
1.090235717E1,9.796100584E0,5.345527108E-1,3.765273589E-1,9.817897234E0
1.091229217E1,9.463379980E0,5.374713850E-1,4.785998636E-1,9.490705662E0
1.092222817E1,8.880362293E0,4.575229901E-1,3.979264140E-1,8.901039668E0
1.093216317E1,8.160472983E0,2.789300206E-1,2.547485679E-1,8.169211595E0
1.094209917E1,7.355728294E0,1.100416750E-2,2.092028511E-1,7.358710869E0
1.095203417E1,6.597629183E0,-2.835506366E-1,2.793337709E-1,6.609624736E0
1.096197017E1,5.934092413E0,-5.321290764E-1,4.039057767E-1,5.971578853E0
1.097190517E1,5.519310231E0,-7.157231694E-1,4.575352693E-1,5.584297950E0
1.098184117E1,5.286530237E0,-7.240794253E-1,5.010262746E-1,5.359358197E0
1.099177617E1,5.376088530E0,-5.012350202E-1,8.997192585E-1,5.473852316E0
1.100171217E1,5.697755558E0,-1.885566249E-1,1.654781325E0,5.936183389E0
1.101164717E1,5.843886248E0,-6.399485171E-2,2.354988323E0,6.300878655E0
1.102158317E1,6.086536927E0,1.205529222E-1,3.129750829E0,6.845130022E0
1.103151817E1,6.374039258E0,2.135561031E-1,3.882469917E0,7.466428552E0
1.104145417E1,6.626452448E0,2.372759181E-1,4.581613306E0,8.059612422E0
1.105138917E1,6.770160052E0,4.457043055E-1,5.351350715E0,8.641219470E0
1.106132517E1,6.642563866E0,4.055435818E-1,6.179058005E0,9.081237698E0
1.107126117E1,5.977630196E0,-1.182798171E-1,7.020084082E0,9.221042967E0
1.108119617E1,4.952583472E0,-7.454773110E-1,7.858207017E0,9.318542642E0
1.109113217E1,3.643334584E0,-1.297558549E0,8.582058985E0,9.413250316E0
1.110106717E1,2.322245670E0,-1.732647819E0,8.918959179E0,9.377778322E0
1.111100317E1,1.141326209E0,-2.119527966E0,8.826621704E0,9.149004045E0
1.112093817E1,2.399422485E-1,-2.653994759E0,8.465097131E0,8.874634071E0
1.113087417E1,-3.592102450E-1,-3.394336461E0,7.875410694E0,8.583277091E0
1.114080917E1,-7.984998626E-1,-4.052475958E0,7.401798506E0,8.476248259E0
1.115074517E1,-1.135250952E0,-4.326918825E0,7.178598590E0,8.458327196E0
1.116068017E1,-1.277818934E0,-4.371805853E0,7.240293732E0,8.553792198E0
1.117061617E1,-1.331653664E0,-4.353758422E0,7.440989469E0,8.723350168E0
1.118055117E1,-1.384210192E0,-4.211611440E0,7.873087596E0,9.035442273E0
1.119048717E1,-1.451050299E0,-4.230331886E0,8.196765481E0,9.337463209E0
1.120042217E1,-1.643551748E0,-4.478042745E0,8.181201947E0,9.470279535E0
1.121035817E1,-1.910556664E0,-4.896966510E0,7.720183491E0,9.339793408E0
1.122029317E1,-2.060477520E0,-5.721323930E0,6.966433539E0,9.247178563E0
1.123022917E1,-2.469362200E0,-6.543899703E0,6.206106640E0,9.350728989E0
1.124016517E1,-2.972174799E0,-7.133456331E0,5.636817046E0,9.565235422E0
1.125010017E1,-3.263309421E0,-7.484048365E0,5.447815740E0,9.815236352E0
1.126003617E1,-3.420176768E0,-7.473584772E0,5.661391724E0,9.980152039E0
1.126997117E1,-3.401844578E0,-7.184983749E0,6.187871513E0,1.007404049E1
1.127990717E1,-3.278972358E0,-6.944740954E0,6.620935600E0,1.013991493E1
1.128984217E1,-3.260091113E0,-6.807721395E0,6.776369210E0,1.014359129E1
1.129977817E1,-3.310823895E0,-6.817281593E0,6.573174373E0,1.003212363E1
1.130971317E1,-3.302114468E0,-7.256077121E0,6.037879906E0,1.000053043E1
1.131964917E1,-3.455446588E0,-7.735731822E0,5.317743258E0,1.000300212E1
1.132958417E1,-3.452044678E0,-7.899408252E0,4.685744616E0,9.811904290E0
1.133952017E1,-3.351785395E0,-7.912138810E0,4.122622665E0,9.530604573E0
1.134945517E1,-3.324088889E0,-7.819520668E0,3.747679317E0,9.286526298E0
1.135939117E1,-3.266734428E0,-7.666120720E0,3.421753178E0,9.008293708E0
1.136932617E1,-3.211092031E0,-7.466897897E0,3.020703766E0,8.671235637E0
1.137926217E1,-3.107678175E0,-7.250319952E0,2.659240004E0,8.324443552E0
1.138919717E1,-2.944647278E0,-7.191006382E0,2.251278598E0,8.090103565E0
1.139913317E1,-2.774229008E0,-7.230221903E0,1.817644992E0,7.954639443E0
1.140906917E1,-2.617014336E0,-7.297827995E0,1.507698709E0,7.898114514E0
1.141900417E1,-2.655945683E0,-7.316235614E0,1.208192629E0,7.876616054E0
1.142894017E1,-2.711032009E0,-7.363885159E0,7.514788932E-1,7.882970235E0
1.143887517E1,-2.455682347E0,-7.386402787E0,2.331360894E-1,7.787404854E0
1.144881117E1,-2.143123527E0,-7.390603427E0,-2.985845590E-1,7.700853862E0
1.145874617E1,-1.999087895E0,-7.347909982E0,-7.648163921E-1,7.653305013E0
1.146868217E1,-1.998761913E0,-7.283353212E0,-1.034630896E0,7.623171538E0
1.147861717E1,-2.117668844E0,-7.368900316E0,-1.296125981E0,7.775934398E0
1.148855317E1,-2.358818250E0,-7.504365685E0,-1.676083902E0,8.042933862E0
1.149848817E1,-2.611395746E0,-7.628937106E0,-1.924891114E0,8.290070863E0
1.150842417E1,-2.976347957E0,-7.713811195E0,-1.989449052E0,8.504083599E0
1.151835917E1,-3.335775426E0,-7.869251822E0,-2.073909159E0,8.795090741E0
1.152829517E1,-3.499472614E0,-7.963683770E0,-2.387836227E0,9.020439547E0
1.153823017E1,-3.473570033E0,-7.848275521E0,-2.869148029E0,9.049482186E0
1.154816617E1,-3.190019835E0,-7.654352029E0,-3.442265795E0,8.978559202E0
1.155810117E1,-2.719679164E0,-7.444446927E0,-4.085991613E0,8.916937382E0
1.156803717E1,-2.037729219E0,-7.115300142E0,-4.827331434E0,8.836456601E0
1.157797217E1,-1.228507902E0,-6.736906936E0,-5.542438307E0,8.809867713E0
1.158790817E1,-5.558535692E-1,-6.362060067E0,-6.075868097E0,8.814814497E0
1.159784417E1,-1.949300900E-1,-6.156633348E0,-6.360839753E0,8.854513780E0
1.160777917E1,-3.466787848E-1,-5.911477137E0,-6.335124868E0,8.671767710E0
1.161771517E1,-6.021614707E-1,-5.674699402E0,-5.969859831E0,8.258573614E0
1.162765017E1,-8.843323106E-1,-5.545028624E0,-5.561206115E0,7.902936134E0
1.163758617E1,-9.682796162E-1,-5.384026126E0,-5.271485935E0,7.596964309E0
1.164752117E1,-7.171969602E-1,-5.143569907E0,-5.280873640E0,7.406639540E0
1.165745717E1,-2.173345739E-1,-4.889079201E0,-5.614633294E0,7.448116324E0
1.166739217E1,6.492958760E-1,-4.533801793E0,-6.351967773E0,7.830992174E0
1.167732829E1,1.329342552E0,-3.975139514E0,-7.276194466E0,8.397135922E0
1.168726329E1,1.410356894E0,-3.516614311E0,-7.914254333E0,8.774457500E0
1.169719929E1,1.213096104E0,-3.296795256E0,-8.029263802E0,8.764105107E0
1.170713429E1,9.860411185E-1,-3.144227951E0,-7.809003282E0,8.475787795E0
1.171707029E1,1.087381552E0,-2.940426757E0,-7.389663779E0,8.027181256E0
1.172700529E1,1.621452781E0,-2.777898721E0,-7.061412202E0,7.759469873E0
1.173694129E1,2.186096177E0,-2.499538219E0,-6.785265164E0,7.554239283E0
1.174687629E1,2.906134007E0,-2.020775510E0,-6.446678633E0,7.354509768E0
1.175681229E1,3.791994195E0,-1.569899050E0,-6.236853054E0,7.466065832E0
1.176674729E1,4.323496158E0,-1.109963499E0,-5.980463172E0,7.462611992E0
1.177668329E1,4.728833917E0,-6.218817902E-1,-5.267514507E0,7.106005647E0
1.178661929E1,5.335491897E0,-5.021202886E-1,-4.320895316E0,6.884020257E0
1.179655429E1,5.939010506E0,-5.385086811E-1,-3.118288532E0,6.729454715E0
1.180649029E1,6.502583277E0,-2.977272110E-1,-1.948493400E0,6.794766905E0
1.181642529E1,6.955772311E0,-1.298958957E-1,-1.113340850E0,7.045507025E0
1.182636129E1,7.323218359E0,3.650840655E-2,-5.785498291E-1,7.346126864E0
1.183629629E1,7.610134799E0,2.826690227E-1,-3.072828770E-1,7.621579640E0
1.184623229E1,8.000953923E0,5.053175461E-1,-2.582381862E-1,8.021053326E0
1.185616729E1,8.430717257E0,7.351274469E-1,3.758122444E-2,8.462790212E0
1.186610329E1,8.816279733E0,7.589551431E-1,5.571870267E-1,8.866411824E0
1.187603829E1,8.869768893E0,4.670671079E-1,1.096832407E0,8.949524748E0
1.188597429E1,8.558161415E0,8.348332912E-2,1.497732714E0,8.688630476E0
1.189590929E1,7.923559592E0,-2.213570197E-1,1.914743271E0,8.154632875E0
1.190584529E1,7.306620453E0,-2.958844610E-1,2.347362970E0,7.680127796E0
1.191578029E1,6.882829465E0,-1.518685627E-1,3.000278272E0,7.509865193E0
1.192571629E1,6.667199939E0,5.223653957E-2,3.895322682E0,7.721905366E0
1.193565129E1,6.641817176E0,1.951587161E-1,4.816274350E0,8.206602277E0
1.194558729E1,6.576085702E0,3.521777987E-1,5.441734051E0,8.542915301E0
1.195552329E1,6.344098005E0,4.297683039E-1,5.685872846E0,8.530031085E0
1.196545829E1,6.149696796E0,1.445308918E-1,5.544725153E0,8.281523826E0
1.197539429E1,5.809300552E0,-2.075112516E-1,5.171176951E0,7.780238099E0
1.198532929E1,5.193840759E0,-3.247812545E-1,4.757198761E0,7.050702429E0
1.199526529E1,4.761247957E0,-3.451389205E-1,4.694750497E0,6.695467513E0
1.200520029E1,4.341285726E0,-2.301864615E-1,5.091898647E0,6.695310254E0
1.201513629E1,3.946893954E0,-1.414043856E-1,5.610104041E0,6.860847939E0
1.202507129E1,3.539100364E0,-3.017476103E-1,6.173024263E0,7.121973852E0
1.203500729E1,3.002538221E0,-5.021068400E-1,6.694667820E0,7.354313310E0
1.204494229E1,2.266031708E0,-5.488597146E-1,6.881113892E0,7.265388846E0
1.205487829E1,1.341122645E0,-6.022529796E-1,6.850469804E0,7.006443830E0
1.206481329E1,3.624595428E-1,-7.089178875E-1,6.819419920E0,6.865743189E0
1.207474929E1,-4.407789034E-1,-8.729366720E-1,6.898663725E0,6.967629846E0
1.208468429E1,-1.160791005E0,-1.239976923E0,6.999042292E0,7.202192134E0
1.209462029E1,-1.479458411E0,-2.058520164E0,7.082848679E0,7.522835095E0
1.210455529E1,-1.503193429E0,-3.230753001E0,7.083127592E0,7.928937629E0
1.211449129E1,-1.628737242E0,-4.117659841E0,7.175635221E0,8.431942148E0
1.212442629E1,-1.813273029E0,-4.594379532E0,7.581558287E0,9.048552836E0
1.213436229E1,-2.020130562E0,-5.055613750E0,8.185367503E0,9.830584878E0
1.214429829E1,-2.369527425E0,-5.393691573E0,8.890706602E0,1.066542230E1
1.215423329E1,-2.815299851E0,-5.555292242E0,9.475758535E0,1.133918802E1
1.216416929E1,-3.376832528E0,-5.757777227E0,9.712556151E0,1.178510685E1
1.217410429E1,-3.673576968E0,-6.122880296E0,9.535227642E0,1.191240517E1
1.218404029E1,-3.721340534E0,-6.467263756E0,9.139681045E0,1.179862897E1
1.219397529E1,-3.720396793E0,-6.716841046E0,8.607937008E0,1.153489859E1
1.220391129E1,-3.595649371E0,-7.001575305E0,7.807580654E0,1.108643616E1
1.221384629E1,-3.450863541E0,-7.103764170E0,6.954700516E0,1.052329719E1
1.222378229E1,-3.078944373E0,-7.235658644E0,6.148827900E0,9.982120967E0
1.223371729E1,-2.873155711E0,-7.285409093E0,5.622020667E0,9.640504436E0
1.224365329E1,-2.878357394E0,-7.125502363E0,5.213347070E0,9.286372429E0
1.225358829E1,-2.710047922E0,-7.080598086E0,4.747104712E0,8.945067476E0
1.226352429E1,-2.759895144E0,-7.231995948E0,4.052550218E0,8.737388046E0
1.227345929E1,-2.951689079E0,-7.199571968E0,3.359594352E0,8.475445661E0
1.228339529E1,-3.065720602E0,-7.024525042E0,2.749294726E0,8.142555887E0
1.229333029E1,-3.128893335E0,-7.008804803E0,2.261089057E0,8.001614961E0
1.230326629E1,-3.116661252E0,-7.130825084E0,1.943626177E0,8.021217268E0
1.231320229E1,-3.130606277E0,-7.107593511E0,1.914426352E0,7.998975524E0
1.232313729E1,-3.069952817E0,-7.107678881E0,1.944758198E0,7.982843717E0
1.233307329E1,-2.920988858E0,-7.226232347E0,1.840786518E0,8.008689334E0
1.234300829E1,-2.838105161E0,-7.116369013E0,1.574775628E0,7.821602592E0
1.235294429E1,-2.858223676E0,-6.909346004E0,1.249786797E0,7.580928163E0
1.236287929E1,-2.839568135E0,-6.836423038E0,1.037266236E0,7.475008254E0
1.237281529E1,-3.104764507E0,-6.828856156E0,1.004315422E0,7.568453509E0
1.238275029E1,-3.382866855E0,-6.924999000E0,1.044030295E0,7.777493077E0
1.239268629E1,-3.405667780E0,-7.306251494E0,9.487674576E-1,8.116652241E0
1.240262129E1,-3.283100492E0,-7.747568926E0,5.822470236E-1,8.434606374E0
1.241255729E1,-3.149448345E0,-7.879948719E0,-7.325859547E-2,8.486340996E0
1.242249229E1,-2.858169297E0,-7.826482363E0,-8.009843445E-1,8.370456011E0
1.243242829E1,-2.492628856E0,-7.750334659E0,-1.514898970E0,8.281050949E0
1.244236329E1,-2.384533573E0,-7.650075960E0,-2.110688145E0,8.286414605E0
1.245229929E1,-2.289348504E0,-7.480164644E0,-2.559182450E0,8.230637550E0
1.246223429E1,-2.209240480E0,-7.276064073E0,-2.861085303E0,8.124509894E0
1.247217029E1,-2.258264559E0,-7.167246805E0,-3.024003934E0,8.100233662E0
1.248210629E1,-2.605059996E0,-7.233322681E0,-2.883057970E0,8.210926735E0
1.249204129E1,-3.002052025E0,-7.367854834E0,-2.630655890E0,8.379615244E0
1.250197729E1,-3.122047707E0,-7.409546067E0,-2.673463941E0,8.473249922E0
1.251191229E1,-2.793192405E0,-7.396211491E0,-2.902167841E0,8.421902779E0
1.252184829E1,-2.058250900E0,-7.085824912E0,-3.353773448E0,8.105128487E0
1.253178329E1,-1.434851173E0,-6.411612296E0,-4.004561534E0,7.694418965E0
1.254171929E1,-8.736225504E-1,-5.851749583E0,-4.402721837E0,7.374967737E0
1.255165429E1,-4.617458493E-1,-5.518906188E0,-4.566591225E0,7.178111879E0
1.256159029E1,-2.734546879E-1,-5.335712922E0,-4.780318066E0,7.169103896E0
1.257152529E1,-1.613419291E-1,-5.127155018E0,-4.948115029E0,7.127242955E0
1.258146129E1,4.354713857E-3,-4.947707478E0,-5.128213949E0,7.125896895E0
1.259139629E1,1.057963040E-1,-4.710387706E0,-5.442854378E0,7.198861644E0
1.260133229E1,8.700598419E-2,-4.411426587E0,-5.648384008E0,7.167460950E0
1.261126729E1,-1.715894669E-2,-4.120637535E0,-5.660127556E0,7.001213614E0
1.262120329E1,-1.281651199E-1,-3.953328815E0,-5.566258110E0,6.828503816E0
1.263113829E1,7.180731654E-2,-3.830225045E0,-5.515184435E0,6.715135110E0
1.264107429E1,4.191225708E-1,-3.663040286E0,-5.679510491E0,6.771289927E0
1.265101029E1,7.151700228E-1,-3.553706709E0,-5.954464697E0,6.971079498E0
1.266094529E1,8.528444695E-1,-3.593993440E0,-6.356322194E0,7.351664055E0
1.267088129E1,8.730863607E-1,-3.656461583E0,-6.629113516E0,7.620835722E0
1.268081642E1,8.426428324E-1,-3.639042728E0,-6.401811193E0,7.411873277E0
1.269075242E1,9.802389264E-1,-3.513092533E0,-5.921972889E0,6.955030582E0
1.270068742E1,1.172945613E0,-3.372668726E0,-5.387668941E0,6.463564989E0
1.271062342E1,1.443020902E0,-3.181031203E0,-4.944649969E0,6.053993075E0
1.272055842E1,1.938885840E0,-2.880077060E0,-4.674342545E0,5.822679830E0
1.273049442E1,2.501651695E0,-2.400206012E0,-4.248129641E0,5.483234041E0
1.274042942E1,3.187285677E0,-1.769873825E0,-3.563205510E0,5.097810987E0
1.275036542E1,3.860466260E0,-1.145797575E0,-2.911343291E0,4.969101688E0
1.276030042E1,4.391288191E0,-6.921352091E-1,-2.536669500E0,5.118315668E0
1.277023642E1,4.825075579E0,-4.296181767E-1,-2.460632308E0,5.433289747E0
1.278017142E1,5.133503925E0,-2.924729030E-1,-2.471405802E0,5.704932041E0
1.279010742E1,5.529452226E0,-2.860722484E-1,-2.425458966E0,6.044793665E0
1.280004242E1,6.224589103E0,-4.064909770E-1,-2.232667496E0,6.625371580E0
1.280997842E1,6.860306575E0,-2.624967134E-1,-1.624384575E0,7.054880302E0
1.281991442E1,7.314036477E0,2.546944812E-1,-6.033069402E-1,7.343294773E0
1.282984942E1,7.643990763E0,6.015774800E-1,4.590473592E-1,7.681355006E0
1.283978542E1,7.579455628E0,6.434355041E-1,1.488626261E0,7.751010580E0
1.284972042E1,7.300388491E0,7.719660750E-1,2.297949904E0,7.692345383E0
1.285965642E1,7.060499452E0,1.099107266E0,2.905916491E0,7.713821358E0
1.286959142E1,6.901007289E0,1.471022049E0,3.412778286E0,7.838039494E0
1.287952742E1,6.967172627E0,1.952128760E0,3.888991317E0,8.214411396E0
1.288946242E1,7.290112009E0,2.253714841E0,4.448211420E0,8.832414649E0
1.289939842E1,7.481853905E0,2.098836716E0,5.101224956E0,9.295469298E0
1.290933342E1,7.330260161E0,1.795780938E0,5.629572346E0,9.415393141E0
1.291926942E1,6.966083876E0,1.374711390E0,5.742413667E0,9.131893051E0
1.292920442E1,6.489373832E0,9.386123058E-1,5.488015932E0,8.550513708E0
1.293914042E1,6.021855027E0,7.520156676E-1,5.123636749E0,7.942286765E0
1.294907542E1,5.425462419E0,6.636680397E-1,4.839432832E0,7.300425184E0
1.295901142E1,4.881160902E0,5.979260400E-1,4.611508366E0,6.741606389E0
1.296894642E1,4.274186588E0,4.836161900E-1,4.391701005E0,6.147324078E0
1.297888242E1,3.660344135E0,4.680661047E-1,4.300164598E0,5.666446914E0
1.298881742E1,3.206493781E0,5.300571156E-1,4.280777569E0,5.374720412E0
1.299875342E1,3.063336400E0,5.097605529E-1,4.313779255E0,5.315315341E0
1.300868942E1,2.981927370E0,3.285915926E-1,4.316002366E0,5.256209632E0
1.301862442E1,2.835529463E0,1.718458673E-1,4.094052585E0,4.983073841E0
1.302856042E1,2.551469972E0,-9.229245186E-3,3.999428848E0,4.743997819E0
1.303849542E1,2.224289605E0,-3.190334415E-1,4.215243146E0,4.776768925E0
1.304843142E1,1.899101969E0,-5.980619878E-1,4.763682153E0,5.163035356E0
1.305836642E1,1.502049714E0,-7.809653784E-1,5.412053584E0,5.670659950E0
1.306830242E1,9.652139211E-1,-1.070009036E0,5.994871296E0,6.165633715E0
1.307823742E1,4.458665657E-1,-1.475160269E0,6.572959780E0,6.751199529E0
1.308817342E1,-5.233491898E-2,-1.919447794E0,7.164313842E0,7.417170054E0
1.309810842E1,-5.139527142E-1,-2.502921125E0,7.676468537E0,8.090545764E0
1.310804442E1,-9.072253293E-1,-3.168322572E0,7.931550981E0,8.588994510E0
1.311797942E1,-1.314558744E0,-3.820616900E0,8.180935314E0,9.124301661E0
1.312791542E1,-1.809533150E0,-4.401692727E0,8.441377900E0,9.690519591E0
1.313785042E1,-2.317624031E0,-4.845112817E0,8.812362099E0,1.032008843E1
1.314778642E1,-2.738483225E0,-5.163353376E0,9.163999615E0,1.086914888E1
1.315772242E1,-2.996554765E0,-5.528198583E0,9.208799227E0,1.115088800E1
1.316765742E1,-3.039404331E0,-5.865835526E0,8.942565558E0,1.111825004E1
1.317759342E1,-2.990721583E0,-5.934651407E0,8.686055224E0,1.093672978E1
1.318752842E1,-2.949373582E0,-6.070093971E0,8.480237326E0,1.083786282E1
1.319746442E1,-2.936882760E0,-6.379922141E0,8.252178959E0,1.083638060E1
1.320739942E1,-2.915672570E0,-6.944400061E0,7.810822350E0,1.085056609E1
1.321733542E1,-2.868413034E0,-7.734331414E0,6.835731897E0,1.071330511E1
1.322727042E1,-2.766482032E0,-8.104415141E0,5.981708629E0,1.044585113E1
1.323720642E1,-2.678555696E0,-7.937428603E0,5.567031112E0,1.005829354E1
1.324714142E1,-2.456558552E0,-7.538422793E0,5.392191178E0,9.588442200E0
1.325707742E1,-2.216467200E0,-7.122306275E0,5.206653762E0,9.096659658E0
1.326701242E1,-2.053085470E0,-6.780754622E0,4.979856055E0,8.659835998E0
1.327694842E1,-2.016548558E0,-6.685643227E0,4.747899349E0,8.444337847E0
1.328688342E1,-2.204670150E0,-6.822780899E0,4.547290151E0,8.490509842E0
1.329681942E1,-2.437204269E0,-7.048935413E0,4.324595434E0,8.621460478E0
1.330675442E1,-2.887814096E0,-7.213958457E0,3.943572151E0,8.713921516E0
1.331669042E1,-3.343726178E0,-7.371056185E0,3.321113241E0,8.748872338E0
1.332662642E1,-3.594478466E0,-7.543093548E0,2.464509012E0,8.711620997E0
1.333656142E1,-3.509626304E0,-7.629194968E0,1.611820663E0,8.551026752E0
1.334649742E1,-3.217251780E0,-7.973300686E0,1.028964944E0,8.659272585E0
1.335643242E1,-3.340613413E0,-8.507291223E0,4.459688920E-1,9.150551360E0
1.336636842E1,-3.631801536E0,-8.645070920E0,-1.461985177E-1,9.378091896E0
1.337630342E1,-3.751399023E0,-8.332470000E0,-4.955538654E-1,9.151427461E0
1.338623942E1,-3.772975541E0,-8.068820801E0,-8.148831761E-1,8.944565285E0
1.339617442E1,-3.794451780E0,-7.879462230E0,-1.123347775E0,8.817352186E0
1.340611042E1,-3.811432971E0,-7.630272610E0,-1.502029248E0,8.660494978E0
1.341604542E1,-3.813562527E0,-7.438037210E0,-1.869406884E0,8.565181771E0
1.342598142E1,-3.712919082E0,-7.281258155E0,-2.022103120E0,8.419702457E0
1.343591642E1,-3.470191512E0,-7.036966163E0,-1.601118796E0,8.007790164E0
1.344585242E1,-3.156733975E0,-6.921559668E0,-1.214894707E0,7.703825464E0
1.345578742E1,-2.651433094E0,-7.012359325E0,-1.425292144E0,7.631168879E0
1.346572342E1,-1.955611800E0,-6.959603407E0,-2.276624524E0,7.579150105E0
1.347565842E1,-1.705911718E0,-6.620667797E0,-3.298882127E0,7.591179102E0
1.348559442E1,-1.948689574E0,-6.444676546E0,-3.932506295E0,7.797169525E0
1.349553042E1,-2.344329434E0,-6.408375278E0,-3.981495145E0,7.900345422E0
1.350546542E1,-2.650911522E0,-6.403081208E0,-3.659569086E0,7.837041965E0
1.351540142E1,-2.936766985E0,-6.469853488E0,-3.235440129E0,7.807155520E0
1.352533642E1,-3.053614234E0,-6.609650474E0,-2.894115640E0,7.835045923E0
1.353527242E1,-2.872693488E0,-6.620045069E0,-2.999328977E0,7.814943308E0
1.354520742E1,-2.091927938E0,-6.319466609E0,-3.473413328E0,7.508423328E0
1.355514342E1,-1.137178195E0,-5.701349257E0,-4.279242675E0,7.218758582E0
1.356507842E1,-4.300954556E-1,-5.088580352E0,-5.242129405E0,7.318370911E0
1.357501442E1,-2.694671792E-1,-4.588804797E0,-6.075818396E0,7.618747351E0
1.358494942E1,-3.841468656E-1,-4.352497762E0,-6.433385573E0,7.776905266E0
1.359488542E1,-4.161492616E-1,-4.259913535E0,-6.220899510E0,7.551134633E0
1.360482042E1,-4.657529461E-1,-4.237597051E0,-5.680890434E0,7.102581974E0
1.361475642E1,-3.217208219E-1,-4.315927522E0,-5.138020899E0,6.717886083E0
1.362469142E1,9.126743495E-2,-4.350762894E0,-4.843406307E0,6.511225089E0
1.363462742E1,7.823516071E-1,-4.118185798E0,-4.861732358E0,6.419343411E0
1.364456242E1,1.506801161E0,-3.636197473E0,-5.128302242E0,6.464662844E0
1.365449842E1,2.051472223E0,-3.110616693E0,-5.435917826E0,6.590423135E0
1.366443442E1,2.495717940E0,-2.521757346E0,-5.493766669E0,6.539827243E0
1.367436942E1,2.985282503E0,-2.005239750E0,-5.381713552E0,6.472691776E0
1.368430608E1,3.472656698E0,-1.692286536E0,-5.243111737E0,6.512557021E0
1.369424108E1,3.934276832E0,-1.452045495E0,-4.812832679E0,6.383598413E0
1.370417708E1,4.265091244E0,-1.188288707E0,-4.221645847E0,6.117624296E0
1.371411208E1,4.705699993E0,-9.339816034E-1,-3.577862726E0,5.984733557E0
1.372404808E1,5.307077352E0,-7.346362808E-1,-3.105977805E0,6.192887744E0
1.373398308E1,5.837758366E0,-4.362417564E-1,-3.021596051E0,6.587850355E0
1.374391908E1,6.181146630E0,-1.226652288E-1,-3.026490755E0,6.883405168E0
1.375385408E1,6.510474679E0,6.523066074E-2,-2.977213930E0,7.159213531E0
1.376379008E1,6.874748613E0,2.420153057E-1,-2.854825859E0,7.447870205E0
1.377372508E1,7.107187715E0,4.379894891E-1,-2.540725713E0,7.560372951E0
1.378366108E1,7.137176329E0,3.290687254E-1,-2.204943507E0,7.477255382E0
1.379359608E1,6.938541736E0,-1.533735629E-2,-1.581707502E0,7.116557825E0
1.380353208E1,6.606017014E0,-3.699065566E-1,-6.507319522E-1,6.648288781E0
1.381346708E1,6.520281630E0,-5.446055728E-1,5.419421661E-1,6.565391768E0
1.382340308E1,6.741122194E0,-5.305272317E-1,1.604932058E0,6.949819745E0
1.383333908E1,7.079881217E0,-5.251666506E-1,2.370488123E0,7.484633057E0
1.384327408E1,7.147091453E0,-4.407895745E-1,3.132038260E0,7.815681375E0
1.385321008E1,6.980635257E0,-2.388321546E-1,3.902491953E0,8.000984491E0
1.386314508E1,6.887921805E0,-4.496041059E-2,4.497206410E0,8.226199227E0
1.387308108E1,6.590502596E0,7.570916355E-2,4.920377592E0,8.224996778E0
1.388301608E1,6.282896953E0,8.245304972E-2,5.109816855E0,8.098877757E0
1.389295208E1,6.397535124E0,2.521787167E-2,5.158108424E0,8.217978713E0
1.390288708E1,6.320551268E0,-3.091422915E-3,5.370554141E0,8.294108130E0
1.391282308E1,5.723995523E0,-7.610180408E-2,5.901521083E0,8.221792221E0
1.392275808E1,5.034533953E0,-3.985432953E-2,7.210165368E0,8.794009616E0
1.393269408E1,4.325963098E0,-5.425982237E-2,9.046393982E0,1.002766897E1
1.394262908E1,3.561920292E0,2.232349992E-2,1.046110033E1,1.105090017E1
1.395256508E1,2.846865460E0,2.892474326E-1,1.099222047E1,1.135857464E1
1.396250008E1,2.293560399E0,4.693393359E-1,1.034500152E1,1.060659018E1
1.397243608E1,1.985103402E0,3.573367971E-1,8.574247105E0,8.808293735E0
1.398237208E1,1.652207381E0,-1.422279659E-1,6.598830201E0,6.804011908E0
1.399230708E1,1.308122714E0,-6.893604130E-1,4.982428245E0,5.197210216E0
1.400224308E1,6.693097258E-1,-9.272309929E-1,4.174188675E0,4.327999991E0
1.401217808E1,-1.902245432E-1,-1.087675959E0,4.170453474E0,4.314151892E0
1.402211408E1,-8.052884799E-1,-1.546535623E0,4.861322469E0,5.164563690E0
1.403204908E1,-1.274217049E0,-2.129912767E0,5.892885330E0,6.394236076E0
1.404198508E1,-1.551986690E0,-2.620659490E0,6.799863907E0,7.450816600E0
1.405192008E1,-1.684136102E0,-3.182630709E0,7.369202617E0,8.201865633E0
1.406185608E1,-1.901101717E0,-3.827427737E0,7.562380005E0,8.686367604E0
1.407179108E1,-2.227431899E0,-4.331600983E0,7.556784804E0,8.990507022E0
1.408172708E1,-2.194721405E0,-4.824061087E0,7.522506087E0,9.201981593E0
1.409166208E1,-1.995923089E0,-5.243613428E0,7.537688967E0,9.396592240E0
1.410159808E1,-2.041467637E0,-5.543573837E0,7.663211145E0,9.675929209E0
1.411153308E1,-2.180176456E0,-5.955272782E0,7.830846725E0,1.007673577E1
1.412146908E1,-2.304228644E0,-6.503570872E0,7.977053429E0,1.054700361E1
1.413140508E1,-2.404392033E0,-6.800970200E0,7.990539447E0,1.076489746E1
1.414134008E1,-2.524576288E0,-6.900950571E0,7.794390505E0,1.071210192E1
1.415127608E1,-2.643251377E0,-7.065426316E0,7.260801086E0,1.047025593E1
1.416121108E1,-2.692033528E0,-7.361937452E0,6.396411290E0,1.011727458E1
1.417114708E1,-2.715130030E0,-7.675480943E0,5.592724947E0,9.877424316E0
1.418108208E1,-2.770397912E0,-7.748806196E0,5.232142945E0,9.751636881E0
1.419101808E1,-2.866901529E0,-7.573732374E0,5.283511904E0,9.669335266E0
1.420095308E1,-2.797038996E0,-7.459400597E0,5.336850790E0,9.588955144E0
1.421088908E1,-2.745094087E0,-7.480064657E0,5.156234976E0,9.490714828E0
1.422082408E1,-2.814211684E0,-7.670866320E0,4.558486399E0,9.356376208E0
1.423076008E1,-2.952752103E0,-8.035759474E0,3.753487941E0,9.347772303E0
1.424069508E1,-3.128856790E0,-8.152573394E0,3.040439873E0,9.246538400E0
1.425063108E1,-3.075240161E0,-8.073806722E0,2.669650387E0,9.042703700E0
1.426056608E1,-2.751649108E0,-8.002424498E0,2.646973130E0,8.866613638E0
1.427050208E1,-2.637701785E0,-7.842107293E0,2.719141220E0,8.709181734E0
1.428043708E1,-2.601840227E0,-7.589499975E0,2.682083906E0,8.459530514E0
1.429037308E1,-2.553254542E0,-7.394935044E0,2.423391391E0,8.190054878E0
1.430030908E1,-2.610162569E0,-7.327837660E0,1.871422420E0,8.000773417E0
1.431024408E1,-2.735226910E0,-7.378821872E0,1.211824334E0,7.962223099E0
1.432018008E1,-2.946755199E0,-7.432232094E0,6.249966019E-1,8.019480086E0
1.433011508E1,-3.243627108E0,-7.562691076E0,1.851871669E-1,8.231021044E0
1.434005108E1,-3.535692314E0,-7.736182643E0,-6.366740763E-2,8.506097552E0
1.434998608E1,-3.851708885E0,-7.907562779E0,-2.389119691E-1,8.798993657E0
1.435992208E1,-4.171899198E0,-8.098867303E0,-4.286897850E-1,9.120316302E0
1.436985708E1,-4.368795122E0,-8.335246843E0,-8.654411262E-1,9.450486712E0
1.437979308E1,-4.252900384E0,-8.489002302E0,-1.641986448E0,9.635685822E0
1.438972808E1,-3.893631375E0,-8.475801628E0,-2.439657176E0,9.641136119E0
1.439966408E1,-3.371560386E0,-8.304220347E0,-3.235350959E0,9.528640556E0
1.440959908E1,-2.996098098E0,-8.052400650E0,-3.894528045E0,9.433191863E0
1.441953508E1,-2.735976231E0,-7.769562643E0,-4.309452315E0,9.296399779E0
1.442947008E1,-2.627211003E0,-7.475148318E0,-4.491454211E0,9.107866982E0
1.443940608E1,-2.692522648E0,-7.308224344E0,-4.442458929E0,8.966340536E0
1.444934208E1,-2.827484863E0,-7.211391529E0,-4.185855625E0,8.804557102E0
1.445927708E1,-2.938690719E0,-7.139655549E0,-3.931827434E0,8.664285976E0
1.446921308E1,-2.910455392E0,-7.138448099E0,-3.961016150E0,8.667054908E0
1.447914808E1,-2.908664097E0,-7.171882478E0,-4.098473665E0,8.757494590E0
1.448908408E1,-2.638385909E0,-7.022949218E0,-4.285054808E0,8.639710101E0
1.449901908E1,-1.779499804E0,-6.794279231E0,-4.488435878E0,8.335160854E0
1.450895508E1,-8.849743348E-1,-6.371266508E0,-4.814141285E0,8.034436683E0
1.451889008E1,-5.626541734E-2,-5.947980720E0,-5.287580397E0,7.958652329E0
1.452882608E1,8.588478059E-1,-5.441487883E0,-6.010310869E0,8.152990046E0
1.453876108E1,1.746580857E0,-4.731356991E0,-6.776851605E0,8.447603290E0
1.454869708E1,2.308609963E0,-3.972308292E0,-7.208055108E0,8.547805073E0
1.455863208E1,2.511182656E0,-3.354466928E0,-7.141519057E0,8.280083402E0
1.456856808E1,2.486339591E0,-3.063025913E0,-6.699709874E0,7.774967826E0
1.457850308E1,2.414317682E0,-3.009771227E0,-6.241511530E0,7.337855197E0
1.458843908E1,2.449823145E0,-2.825861676E0,-5.874342055E0,6.963836747E0
1.459837508E1,2.567695411E0,-2.692834304E0,-5.655531644E0,6.769745526E0
1.460831008E1,2.728296790E0,-2.618989818E0,-5.473585589E0,6.653033161E0
1.461824608E1,3.007305456E0,-2.346771231E0,-5.305004514E0,6.534087099E0
1.462818108E1,3.541041639E0,-1.949825980E0,-5.040637861E0,6.461333244E0
1.463811708E1,4.566673086E0,-1.382520931E0,-4.695349252E0,6.694189406E0
1.464805208E1,5.549418129E0,-8.404752696E-1,-4.462013773E0,7.170216674E0
1.465798808E1,6.253031715E0,-3.588901100E-1,-4.132173507E0,7.503603510E0
1.466792308E1,6.765823756E0,-9.225386024E-2,-3.884631048E0,7.802258664E0
1.467785929E1,6.834552514E0,-3.449556103E-1,-3.521946387E0,7.696376342E0
1.468779429E1,6.727725638E0,-5.027459772E-1,-2.855891806E0,7.326060591E0
1.469773029E1,6.821942993E0,-4.709479049E-1,-2.103147576E0,7.154294365E0
1.470766529E1,6.812866361E0,-3.559238175E-1,-1.181031142E0,6.923630866E0
1.471760129E1,6.790340547E0,5.659256905E-2,-2.612799078E-1,6.795601125E0
1.472753629E1,6.778160212E0,6.293480998E-1,5.839351147E-1,6.832314038E0
1.473747229E1,6.790050525E0,1.033559247E0,1.344359078E0,6.998595015E0
1.474740729E1,6.800433426E0,1.215311906E0,1.830859115E0,7.146672156E0
1.475734329E1,6.860908839E0,1.310764632E0,2.028796721E0,7.273664148E0
1.476727929E1,7.217031754E0,1.433129752E0,2.169324024E0,7.671073910E0
1.477721429E1,7.941953178E0,1.573879834E0,1.972577496E0,8.333233466E0
1.478715029E1,8.662642388E0,1.629527493E0,1.618771833E0,8.961983890E0
1.479708529E1,8.972526691E0,1.601174637E0,1.294968817E0,9.205810104E0
1.480702129E1,8.838193343E0,1.390368187E0,1.325871352E0,9.044596183E0
1.481695629E1,8.372743868E0,9.694277170E-1,1.691645681E0,8.596760732E0
1.482689229E1,7.814402601E0,4.919262528E-1,2.250433676E0,8.146860203E0
1.483682729E1,7.230698451E0,3.478830189E-2,2.971084294E0,7.817387811E0
1.484676329E1,6.580836564E0,-3.358406782E-1,3.811711006E0,7.612446364E0
1.485669829E1,6.167564133E0,-5.682020116E-1,4.574340540E0,7.699759232E0
1.486663429E1,5.917678109E0,-6.608827186E-1,5.226605047E0,7.922946453E0
1.487656929E1,5.623542697E0,-6.736811042E-1,5.639446539E0,7.992586312E0
1.488650529E1,5.282210898E0,-8.038564968E-1,5.894275213E0,7.955527483E0
1.489644029E1,4.717517216E0,-1.042624040E0,6.264610956E0,7.911218869E0
1.490637629E1,4.053613826E0,-1.265790626E0,6.749223511E0,7.974084836E0
1.491631229E1,3.372222583E0,-1.556199024E0,7.368455343E0,8.251531658E0
1.492624729E1,2.732558241E0,-1.782296235E0,8.057588300E0,8.692996239E0
1.493618329E1,2.188068443E0,-1.939360633E0,8.725435052E0,9.202281240E0
1.494611829E1,1.654445111E0,-2.348083346E0,9.204907320E0,9.642665752E0
1.495605429E1,1.006192963E0,-3.022865481E0,9.441997882E0,9.965011992E0
1.496598929E1,2.783245414E-1,-3.550102485E0,9.563269719E0,1.020474497E1
1.497592529E1,-2.716785961E-1,-4.117177446E0,9.601540915E0,1.045057641E1
1.498586029E1,-7.519554412E-1,-4.675915446E0,9.511723005E0,1.062555866E1
1.499579629E1,-1.190678464E0,-5.191253951E0,9.237540631E0,1.066297284E1
1.500573129E1,-1.398631765E0,-5.739500585E0,8.884772848E0,1.066945295E1
1.501566729E1,-1.586977013E0,-6.175712813E0,8.715540978E0,1.079900826E1
1.502560229E1,-1.921751744E0,-6.508855001E0,8.865938382E0,1.116526697E1
1.503553829E1,-2.327770119E0,-6.910046500E0,9.058842704E0,1.162883861E1
1.504547329E1,-2.689462507E0,-7.211594428E0,9.090242836E0,1.191103764E1
1.505540929E1,-2.816690319E0,-7.369744654E0,9.226800465E0,1.214004643E1
1.506534529E1,-2.765801416E0,-7.421863226E0,9.469243568E0,1.234505103E1
1.507528029E1,-2.620503370E0,-7.468464950E0,9.471556726E0,1.234323270E1
1.508521629E1,-2.491465845E0,-7.442781640E0,9.232242469E0,1.211761947E1
1.509515129E1,-2.515497317E0,-7.300487309E0,8.622838052E0,1.157489429E1
1.510508729E1,-2.559602280E0,-7.423788714E0,7.433483983E0,1.081299620E1
1.511502229E1,-2.826378570E0,-7.671280303E0,6.004087093E0,1.014327458E1
1.512495829E1,-3.104895485E0,-7.754373330E0,4.999235482E0,9.734630816E0
1.513489329E1,-3.083405798E0,-7.847276232E0,4.175416006E0,9.408572389E0
1.514482929E1,-3.182683918E0,-7.853647943E0,3.586712487E0,9.201835110E0
1.515476429E1,-3.322347003E0,-7.655389910E0,3.247848798E0,8.954971027E0
1.516470029E1,-3.206730593E0,-7.560555089E0,2.737273436E0,8.656661031E0
1.517463529E1,-3.122661665E0,-7.437170067E0,2.418778523E0,8.420985930E0
1.518457129E1,-3.071050047E0,-6.901489685E0,2.724147021E0,8.030123614E0
1.519450629E1,-2.779779770E0,-6.383520518E0,2.789552806E0,7.500540956E0
1.520444229E1,-2.473711944E0,-6.374791210E0,1.854480112E0,7.084935443E0
1.521437829E1,-2.287626937E0,-6.421181265E0,5.154560333E-1,6.835971091E0
1.522431329E1,-2.166183484E0,-6.308110147E0,-6.226887059E-1,6.698682388E0
1.523424929E1,-2.231082315E0,-6.160457427E0,-1.682900001E0,6.764696329E0
1.524418429E1,-2.483410428E0,-5.926914956E0,-2.500476404E0,6.895507994E0
1.525412029E1,-2.683099275E0,-5.586139812E0,-2.721808135E0,6.768472446E0
1.526405529E1,-2.857642170E0,-5.241361665E0,-3.149094003E0,6.749428414E0
1.527399129E1,-2.647701693E0,-4.995493264E0,-3.776661626E0,6.799150700E0
1.528392629E1,-2.245503888E0,-4.497699915E0,-4.326599275E0,6.632575180E0
1.529386229E1,-2.034299828E0,-4.067448923E0,-5.049083580E0,6.795274941E0
1.530379729E1,-1.844574344E0,-4.013760958E0,-5.482156438E0,7.040367231E0
1.531373329E1,-1.609493763E0,-3.865918788E0,-5.417267547E0,6.847085944E0
1.532366829E1,-1.546802841E0,-3.670178567E0,-4.888523716E0,6.305590683E0
1.533360429E1,-1.183256008E0,-3.537959572E0,-4.377327964E0,5.751369647E0
1.534353929E1,-9.226651946E-1,-2.996416186E0,-3.843866599E0,4.960355981E0
1.535347529E1,-3.132686716E-1,-2.340031731E0,-3.701831884E0,4.390608734E0
1.536341129E1,1.090815622E-1,-2.271324023E0,-3.680807635E0,4.326564047E0
1.537334629E1,3.141317207E-1,-2.203339616E0,-3.881273577E0,4.474110948E0
1.538328229E1,-8.397157162E-2,-1.878028604E0,-4.327207970E0,4.717920249E0
1.539321729E1,-2.978878632E-1,-2.212449578E0,-4.954962119E0,5.434640735E0
1.540315329E1,-5.753470168E-1,-2.049346175E0,-5.477987373E0,5.877005155E0
1.541308829E1,-8.996181017E-1,-1.169799811E0,-5.551319643E0,5.744118218E0
1.542302429E1,-9.483201456E-1,-2.492890227E-1,-4.830086058E0,4.928609078E0
1.543295929E1,-7.507190475E-1,3.189515805E-1,-3.021686098E0,3.129839624E0
1.544289529E1,-5.213532427E-1,5.093351680E-1,-1.485079340E0,1.654295065E0
1.545283029E1,-2.292275181E-1,5.848121971E-1,-1.055521828E0,1.228282089E0
1.546276629E1,1.395571040E-1,6.832120657E-1,-1.521151398E0,1.673366812E0
1.547270129E1,4.358632953E-1,8.735570616E-1,-2.577136325E0,2.755850212E0
1.548263729E1,4.332450584E-1,9.982658923E-1,-3.598414519E0,3.759364724E0
1.549257229E1,-1.284837931E-2,8.862414265E-1,-3.766376374E0,3.869260903E0
1.550250829E1,-4.972545281E-1,7.201115048E-1,-3.489468028E0,3.597528285E0
1.551244429E1,-4.132335475E-1,9.155102491E-1,-2.997873897E0,3.161671849E0
1.552237929E1,-1.200456762E-1,1.192505134E0,-1.989068398E0,2.322255919E0
1.553231529E1,-4.361606263E-1,1.424947743E0,-1.259418331E0,1.951114219E0
1.554225029E1,-9.004473831E-1,1.604588826E0,-7.089059007E-1,1.971816007E0
1.555218629E1,-1.049824155E0,1.682718737E0,3.742112768E-1,2.018342682E0
1.556212129E1,-3.783012579E-1,1.529585422E0,1.065874908E0,1.902322981E0
1.557205729E1,2.830166396E-1,1.425034282E0,8.602973306E-1,1.688470497E0
1.558199229E1,7.193921511E-1,1.569809588E0,2.743940431E-1,1.748461981E0
1.559192829E1,1.096278237E0,1.526777004E0,-2.973724312E-1,1.902972505E0
1.560186329E1,1.172414685E0,1.135688909E0,-6.968243837E-2,1.633768997E0
1.561179929E1,6.454180026E-1,5.577319872E-1,5.283795494E-1,1.003401373E0
1.562173429E1,-2.995664527E-1,3.704176033E-1,9.678545237E-1,1.078745401E0
1.563167029E1,-9.328782338E-1,5.414854985E-1,1.331743126E0,1.713770141E0
1.564160529E1,-1.391496115E0,8.107392544E-1,1.780298241E0,2.400629377E0
1.565154129E1,-1.526577614E0,9.424331689E-1,2.310931308E0,2.925580797E0
1.566147729E1,-1.673879501E0,8.389777976E-1,2.291474113E0,2.959156964E0
1.567141229E1,-1.694126363E0,3.467088979E-1,1.745891470E0,2.457317281E0
1.568134742E1,-1.719202732E0,-3.207279646E-1,1.521598710E0,2.318143027E0
1.569128242E1,-1.603035075E0,-8.344128764E-1,1.354401087E0,2.258399567E0
1.570121842E1,-1.833924810E0,-1.065211834E0,1.200931556E0,2.437251128E0
1.571115342E1,-1.748520963E0,-8.570527107E-1,3.787925702E-1,1.983771337E0
1.572108942E1,-1.408285956E0,-6.732776463E-2,6.793909103E-1,1.565047722E0
1.573102442E1,-1.543268783E0,6.930570227E-1,1.147928300E0,2.044442701E0
1.574096042E1,-1.692219878E0,7.929052466E-1,9.331015974E-1,2.088776062E0
1.575089542E1,-1.314639143E0,6.319255525E-1,5.466170150E-1,1.557689360E0
1.576083142E1,-7.964468320E-1,4.257556522E-1,2.606571794E-1,9.399668062E-1
1.577076642E1,-6.199971595E-1,1.210455501E-1,-2.246728295E-1,6.704672872E-1
1.578070242E1,-8.273117984E-1,-1.883399856E-1,-4.954509544E-1,9.825418109E-1
1.579063842E1,-1.045233871E0,-2.307977879E-1,-5.278205556E-1,1.193472247E0
1.580057342E1,-1.285186864E0,-1.190142274E-2,-4.725088191E-1,1.369347108E0
1.581050942E1,-1.376381355E0,3.002334738E-1,-1.482859737E-1,1.416529034E0
1.582044442E1,-9.273992465E-1,7.177223325E-1,6.594431341E-2,1.174539638E0
1.583038042E1,-5.863137621E-1,9.105997574E-1,6.424920559E-2,1.084934886E0
1.584031542E1,-6.492608658E-1,7.629242331E-1,1.832295191E-1,1.018413528E0
1.585025142E1,-8.569300653E-1,5.092685097E-1,4.520611060E-1,1.094551413E0
1.586018642E1,-1.016991893E0,3.245596451E-1,1.251337479E0,1.644827334E0
1.587012242E1,-9.820317558E-1,1.514651048E-1,2.334357008E0,2.537035807E0
1.588005742E1,-1.078221523E0,-1.851994461E-1,2.368011827E0,2.608513082E0
1.588999342E1,-1.040150302E0,-4.790612090E-1,1.616386169E0,1.980938298E0
1.589992842E1,-4.810035078E-1,-7.415754640E-1,3.082371426E-1,9.361136039E-1
1.590986442E1,6.020282272E-2,-9.198336804E-1,-8.753708678E-1,1.271216951E0
1.591980042E1,-1.321036216E-1,-8.174582899E-1,-1.750307872E0,1.936302422E0
1.592973542E1,-9.706125822E-2,-6.310309285E-1,-2.111777481E0,2.206178835E0
1.593967142E1,1.937957302E-2,-5.161091673E-1,-1.909885404E0,1.978485910E0
1.594960642E1,3.815008543E-2,-3.672589374E-1,-1.318035498E0,1.368777605E0
1.595954242E1,-4.736987275E-1,-3.815892935E-3,-5.294431579E-1,7.104330390E-1
1.596947742E1,-1.567104958E0,3.450623220E-1,4.098769534E-1,1.656165774E0
1.597941342E1,-2.640896411E0,4.234015632E-1,1.318667582E0,2.982027319E0
1.598934842E1,-3.239569433E0,3.563263983E-1,2.066163352E0,3.858861181E0
1.599928442E1,-3.089816101E0,2.440154189E-1,1.685986161E0,3.528322037E0
1.600921942E1,-2.496130169E0,3.648183095E-1,-2.326659733E-1,2.533355813E0
1.601915542E1,-1.939497897E0,7.285209703E-1,-2.240333780E0,3.051473471E0
1.602909042E1,-1.391955121E0,8.050773954E-1,-3.194914539E0,3.576753778E0
1.603902642E1,-1.013870357E0,7.798536766E-1,-3.162872967E0,3.411725409E0
1.604896242E1,-1.230638335E0,6.989176869E-1,-2.317273782E0,2.715274282E0
1.605889742E1,-1.541452346E0,5.316686082E-1,-1.311432238E0,2.092510778E0
1.606883342E1,-1.801301148E0,2.487347066E-1,-4.679538381E-1,1.877640960E0
1.607876842E1,-1.871986822E0,3.131651759E-2,1.784652078E-1,1.880735286E0
1.608870442E1,-1.605559756E0,-1.173927945E-1,4.767053658E-1,1.678943479E0
1.609863942E1,-1.174733984E0,-1.765829891E-1,7.910809153E-1,1.427231761E0
1.610857542E1,-1.042029305E0,-2.849558687E-1,7.897097433E-1,1.338157837E0
1.611851042E1,-8.311038639E-1,-1.918974316E-1,5.318241441E-1,1.005184151E0
1.612844642E1,-1.235382474E0,-1.206637269E-1,1.827629113E-1,1.254644122E0
1.613838142E1,-1.488006748E0,-2.037468141E-1,-1.275874150E-1,1.507300698E0
1.614831742E1,-1.660196724E0,-3.755970669E-1,-3.519807476E-1,1.738164770E0
1.615825242E1,-1.824113182E0,-4.011359507E-1,-6.134419191E-1,1.965861120E0
1.616818842E1,-1.733941223E0,-1.307940280E-1,-6.968436795E-1,1.873299324E0
1.617812442E1,-1.511311703E0,8.056995392E-2,-6.709878767E-1,1.655529919E0
1.618805942E1,-1.068083694E0,1.985884005E-1,-4.523704237E-1,1.176808876E0
1.619799542E1,-4.790371623E-1,3.299379140E-1,-1.272938848E-3,5.816676459E-1
1.620793042E1,-3.056042144E-1,4.289102250E-1,4.050945157E-1,6.644241745E-1
1.621786642E1,-3.911576772E-1,4.099886352E-1,6.953462076E-1,8.969957401E-1
1.622780142E1,-9.613625063E-1,3.460434848E-1,4.385663170E-1,1.111892250E0
1.623773742E1,-1.436612939E0,3.090908360E-1,-1.401519120E-1,1.476155967E0
1.624767242E1,-1.364128807E0,2.424758470E-1,-6.129443210E-1,1.515038837E0
1.625760842E1,-1.137023097E0,2.152026790E-1,-8.871845824E-1,1.458159868E0
1.626754342E1,-1.227023733E0,3.002492613E-1,-1.210308151E0,1.749452109E0
1.627747942E1,-1.396124186E0,3.560375458E-1,-1.273290265E0,1.922808773E0
1.628741442E1,-1.310055803E0,3.157753730E-1,-1.099027451E0,1.738913923E0
1.629735042E1,-1.392845506E0,8.790820956E-2,-9.894389355E-1,1.710770547E0
1.630728642E1,-1.578296675E0,-2.827596545E-2,-8.444344193E-1,1.790220493E0
1.631722142E1,-1.630372270E0,1.908180356E-2,-4.684414959E-1,1.696441950E0
1.632715742E1,-1.674288368E0,8.481971025E-3,-2.242559230E-1,1.689261437E0
1.633709242E1,-1.626140055E0,-1.197509766E-1,-2.716680712E-1,1.653020059E0
1.634702842E1,-1.266864321E0,-6.639221013E-2,-4.477090234E-1,1.345286774E0
1.635696342E1,-9.501435998E-1,2.606033850E-1,-7.386331451E-1,1.231367495E0
1.636689942E1,-6.885771784E-1,5.659198433E-1,-1.052056183E0,1.378849525E0
1.637683442E1,-7.943324058E-1,5.837819177E-1,-1.141664178E0,1.508364145E0