"Time (s)","Linear Acceleration x (m/s^2)","Linear Acceleration y (m/s^2)","Linear Acceleration z (m/s^2)","Absolute acceleration (m/s^2)"
4.300208326E-3,1.739830247E-1,4.503408551E-1,-1.162698367E0,1.258945778E0
1.423520833E-2,2.759591234E-1,4.837916064E-1,-1.394724070E0,1.501819892E0
2.417120835E-2,2.376184188E-1,4.775438565E-1,-1.285804476E0,1.392050214E0
3.410620833E-2,-1.273317455E-1,5.653228426E-1,-1.139831076E0,1.278678291E0
4.404120834E-2,-2.157261510E-1,5.063647825E-1,-9.914883846E-1,1.134015997E0
5.397720833E-2,6.489532292E-2,2.697928691E-1,-6.027613950E-1,6.635667973E-1
6.391220834E-2,2.345745045E-1,8.815203846E-2,-2.380746478E-1,3.456523079E-1
7.384820833E-2,5.517021923E-1,7.064079702E-2,-2.329086328E-1,6.030023734E-1
8.378320833E-2,7.831153996E-1,4.257299244E-1,-1.095978713E-1,8.980687007E-1
9.371920835E-2,9.855756070E-1,5.161594534E-1,-2.206657326E-1,1.134228030E0
1.036542083E-1,6.680728204E-1,5.060706675E-1,-5.465369081E-1,1.000565543E0
1.135902083E-1,4.345103227E-1,4.473184294E-1,-8.279838628E-1,1.036556933E0
1.235252083E-1,4.123114416E-1,4.800137204E-1,-9.587018770E-1,1.148705004E0
1.334602083E-1,4.682024179E-1,5.305675775E-1,-9.744460899E-1,1.204267678E0
1.433962083E-1,4.450360418E-1,5.027400935E-1,-7.932800531E-1,1.039277597E0
1.533312083E-1,4.611298451E-1,4.195564342E-1,-5.422017825E-1,8.262270320E-1
1.632672084E-1,4.902559226E-1,3.100737530E-1,-4.322536629E-1,7.234223048E-1
1.732022083E-1,5.504832671E-1,2.200248778E-1,-3.557621419E-1,6.913822935E-1
1.831382083E-1,5.528365521E-1,1.857637024E-1,-3.168728954E-1,6.637355183E-1
1.930732083E-1,5.295736970E-1,2.739835685E-1,-4.053248960E-1,7.209740409E-1
2.030082083E-1,6.529045583E-1,3.541845632E-1,-5.400079072E-1,9.183352366E-1
2.129442083E-1,7.988634863E-1,4.611932874E-1,-6.538526112E-1,1.130665890E0
2.228792083E-1,8.833853540E-1,6.520750576E-1,-8.993970770E-1,1.419326131E0
2.328152084E-1,1.015729917E0,8.894714284E-1,-1.242885913E0,1.835110918E0
2.427502083E-1,1.132394441E0,1.097897769E0,-1.521300502E0,2.191358460E0
2.526862083E-1,1.213890886E0,1.266830261E0,-1.818370047E0,2.526827977E0
2.626212083E-1,1.363423340E0,1.434597403E0,-2.151291795E0,2.923191630E0
2.725562083E-1,1.445018604E0,1.632537640E0,-2.495907390E0,3.314032530E0
2.824922083E-1,1.412773840E0,1.750251739E0,-2.927092182E0,3.691501011E0
2.924272083E-1,1.379480964E0,1.898644717E0,-3.133969595E0,3.915301382E0
3.023632083E-1,1.821990351E0,2.576391682E0,-2.643753653E0,4.116658392E0
3.122982083E-1,2.235351368E0,2.764483746E0,-2.224477301E0,4.193741215E0
3.222342083E-1,2.621047453E0,2.749037449E0,-1.926396187E0,4.258884703E0
3.321692083E-1,2.966100712E0,2.871076733E0,-1.641376584E0,4.442403868E0
3.421042083E-1,3.107525270E0,2.977066872E0,-1.400360786E0,4.525555303E0
3.520402084E-1,2.877965046E0,3.246605388E0,-1.408348668E-1,4.340848282E0
3.619752083E-1,2.759495486E0,3.293943861E0,2.299483044E0,4.873654047E0
3.719112083E-1,2.964950272E0,2.795124325E0,4.532604284E0,6.094928359E0
3.818462083E-1,3.041051491E0,2.064437985E0,5.924299496E0,6.971888043E0
3.917822083E-1,2.668544970E0,1.573292482E0,6.794234793E0,7.467128492E0
4.017172083E-1,1.840508921E0,1.368941650E0,7.300311307E0,7.652190504E0
4.116522083E-1,9.128974208E-1,1.203163877E0,7.747549045E0,7.893383382E0
4.215882084E-1,5.052731804E-1,7.613485546E-1,8.044618590E0,8.096347379E0
4.315232083E-1,5.293980613E-1,5.845797703E-2,8.343868563E0,8.360850569E0
4.414592083E-1,3.695340159E-1,-6.357271197E-1,8.899033037E0,8.929361308E0
4.513942083E-1,6.693806598E-2,-1.519450004E0,9.262169688E0,9.386213099E0
4.613302083E-1,-1.277750923E-1,-2.450150589E0,9.517794169E0,9.828935355E0
4.712652083E-1,-2.585052761E-1,-3.265483416E0,9.733024330E0,1.026946783E1
4.812012083E-1,-6.611028662E-1,-4.061901670E0,9.754976531E0,1.058752423E1
4.911362084E-1,-1.262162868E0,-4.928530365E0,9.456794261E0,1.073845540E1
5.010712083E-1,-1.791831436E0,-5.785398304E0,8.855544371E0,1.072856745E1
5.110072083E-1,-2.518786960E0,-6.440270669E0,7.828386217E0,1.044533412E1
5.209422083E-1,-2.910947143E0,-6.778163720E0,6.702436430E0,9.966933871E0
5.308782083E-1,-3.086208661E0,-6.792021621E0,5.506556284E0,9.272454029E0
5.408132083E-1,-3.098530791E0,-6.673446520E0,4.578356992E0,8.665860273E0
5.507492083E-1,-2.944363688E0,-6.798512031E0,4.173560100E0,8.503390339E0
5.606842084E-1,-2.958663931E0,-7.207959214E0,4.202693267E0,8.852739631E0
5.706202083E-1,-3.179078233E0,-7.594384739E0,4.278648598E0,9.278364716E0
5.805552083E-1,-3.158626134E0,-7.780187618E0,4.027010164E0,9.312628485E0
5.904902083E-1,-2.949942224E0,-7.893787909E0,3.500426295E0,9.125077036E0
6.004262083E-1,-2.719014335E0,-8.105783390E0,2.835281541E0,9.007529336E0
6.103612083E-1,-2.455151712E0,-8.256786565E0,2.041645392E0,8.852717674E0
6.202972083E-1,-2.137634454E0,-8.205130507E0,1.357144015E0,8.586937031E0
6.302335000E-1,-1.840733893E0,-8.139413066E0,7.191467142E-1,8.375889106E0
6.401695000E-1,-1.468143464E0,-8.085399411E0,-1.454623532E-1,8.218898233E0
6.501045000E-1,-1.104300178E0,-8.054808533E0,-1.080844365E0,8.201685432E0
6.600395000E-1,-1.013091215E0,-7.950460292E0,-1.917892581E0,8.241024488E0
6.699755000E-1,-9.102685127E-1,-7.895212290E0,-2.563400046E0,8.350687736E0
6.799105000E-1,-9.719411427E-1,-7.752682900E0,-2.843541902E0,8.314715406E0
6.898465000E-1,-1.129560150E0,-7.766552496E0,-2.857825481E0,8.352389495E0
6.997815000E-1,-1.295672822E0,-7.984188201E0,-2.713760027E0,8.531736212E0
7.097175000E-1,-1.420162090E0,-8.255307219E0,-2.337226236E0,8.696527130E0
7.196525000E-1,-1.580438071E0,-8.724382553E0,-1.809701550E0,9.049179804E0
7.295875000E-1,-1.494548028E0,-9.388999304E0,-1.762320100E0,9.669165107E0
7.395235000E-1,-1.012528567E0,-9.594028412E0,-2.485004672E0,9.962220811E0
7.494585000E-1,-1.667833480E-1,-9.369577777E0,-3.344270554E0,9.949922107E0
7.593945000E-1,1.018444999E0,-8.849342814E0,-4.182023944E0,9.840600730E0
7.693295000E-1,2.249490374E0,-8.173853751E0,-4.675371948E0,9.681487227E0
7.792655000E-1,3.271982011E0,-7.593044558E0,-4.875053777E0,9.598246781E0
7.892005000E-1,3.609442076E0,-7.244563953E0,-4.992815824E0,9.509994155E0
7.991355000E-1,3.294587639E0,-7.361939791E0,-5.053562547E0,9.517928326E0
8.090715000E-1,2.715196103E0,-7.703445252E0,-5.103976071E0,9.631507170E0
8.190065000E-1,1.928394327E0,-8.086592828E0,-5.235534330E0,9.824586911E0
8.289425000E-1,1.193108201E0,-8.465629227E0,-5.493221124E0,1.016198129E1
8.388775000E-1,8.941706894E-1,-8.640283805E0,-5.728776791E0,1.040542786E1
8.488135000E-1,1.338148166E0,-8.490368797E0,-5.763075389E0,1.034843180E1
8.587485000E-1,2.616339860E0,-8.057425162E0,-5.671451858E0,1.019473887E1
8.686845000E-1,3.967669111E0,-7.443644689E0,-5.663332415E0,1.015990052E1
8.786195000E-1,4.968540523E0,-6.828485443E0,-5.758015793E0,1.022102511E1
8.885545000E-1,5.615540782E0,-6.277691762E0,-5.882035822E0,1.027336642E1
8.984905000E-1,5.884606258E0,-5.963853571E0,-6.183936337E0,1.041331882E1
9.084255000E-1,5.836417599E0,-5.909467449E0,-6.451719518E0,1.051714128E1
9.183615000E-1,5.755169953E0,-5.949457726E0,-6.127776169E0,1.029891592E1
9.282965000E-1,6.002266270E0,-5.829828372E0,-5.483943931E0,1.000438605E1
9.382325000E-1,6.772190205E0,-5.387363132E0,-4.876426411E0,9.933064795E0
9.481675000E-1,8.239516228E0,-4.707910826E0,-4.256333869E0,1.040050143E1
9.581025000E-1,9.863194460E0,-3.825553120E0,-3.267109526E0,1.107210306E1
9.680385000E-1,1.111553591E1,-2.838243740E0,-2.007866027E0,1.164655709E1
9.779735000E-1,1.207649071E1,-2.057384343E0,-8.483163857E-1,1.227982488E1
9.879095000E-1,1.241388675E1,-1.337600574E0,8.920219839E-1,1.251756617E1
9.978445000E-1,1.218882976E1,-8.023982012E-1,2.259690987E0,1.242246421E1
1.007780500E0,1.168023894E1,-4.716916707E-1,2.983994946E0,1.206460528E1
1.017715500E0,1.098796837E1,-2.829850647E-1,3.061117966E0,1.140990678E1
1.027650500E0,1.041572710E1,-1.460492675E-1,2.660166788E0,1.075105524E1
1.037586500E0,1.027526061E1,4.922917038E-3,1.846080002E0,1.043978047E1
1.047521500E0,1.003576801E1,3.877565711E-1,1.406602104E0,1.014127824E1
1.057457500E0,9.657336216E0,1.156908089E0,2.018354763E0,9.933596280E0
1.067392500E0,9.567259859E0,1.794441340E0,3.328891207E0,1.028756519E1
1.077328500E0,9.470507151E0,2.011987291E0,4.883852960E0,1.084392080E1
1.087263500E0,9.092609205E0,1.468464623E0,6.320549514E0,1.117055400E1
1.097199500E0,8.216833709E0,4.653532889E-1,7.501996978E0,1.113610653E1
1.107134500E0,7.081288642E0,-6.682043096E-1,8.502072583E0,1.108496207E1
1.117069500E0,5.760164060E0,-1.566194108E0,9.657478888E0,1.135338507E1
1.127005500E0,4.658293692E0,-2.185760255E0,1.068766941E1,1.186185169E1
1.136940500E0,3.827473345E0,-2.965190300E0,1.124548910E1,1.224348524E1
1.146876500E0,3.117818709E0,-4.170893185E0,1.119089131E1,1.234314351E1
1.156811500E0,2.064155272E0,-5.585437562E0,1.097438178E1,1.248578813E1
1.166747500E0,5.806187202E-1,-6.457725193E0,1.110761644E1,1.286151141E1
1.176682500E0,-7.977712995E-1,-6.662652560E0,1.138267648E1,1.321335317E1
1.186617500E0,-1.712633531E0,-6.591321791E0,1.158469076E1,1.343814335E1
1.196553500E0,-2.314405577E0,-6.532153232E0,1.163478971E1,1.354229783E1
1.206488500E0,-2.534647240E0,-6.589109790E0,1.133246293E1,1.335161116E1
1.216424500E0,-2.549272588E0,-6.694719275E0,1.053504305E1,1.273990537E1
1.226359500E0,-2.399521595E0,-6.792188267E0,9.405458631E0,1.184711684E1
1.236295500E0,-2.253064338E0,-6.896724204E0,8.134717752E0,1.090021727E1
1.246230500E0,-2.141605883E0,-7.050973753E0,6.994515962E0,1.016001772E1
1.256166500E0,-2.009922201E0,-7.329248593E0,6.198412873E0,9.807038000E0
1.266101500E0,-1.914864454E0,-7.842732360E0,5.785984780E0,9.932410414E0
1.276036500E0,-2.085151454E0,-8.396324519E0,5.587921459E0,1.029907706E1
1.285972500E0,-2.633797014E0,-8.586115199E0,5.557952725E0,1.056168071E1
1.295907500E0,-3.083649335E0,-8.632704644E0,5.493215277E0,1.068680948E1
1.305843500E0,-3.140834227E0,-8.863484890E0,5.309957691E0,1.079915991E1
1.315778500E0,-3.143891151E0,-9.092452499E0,5.284176148E0,1.097630455E1
1.325714500E0,-3.170267064E0,-9.299648001E0,5.372284917E0,1.119801283E1
1.335649500E0,-2.862534243E0,-9.519350113E0,5.182975463E0,1.121050238E1
1.345584500E0,-2.483944279E0,-9.803844636E0,4.851748822E0,1.121716611E1
1.355520500E0,-2.324740385E0,-1.007489641E1,4.224543727E0,1.116936548E1
1.365455500E0,-2.299188491E0,-1.023308347E1,3.286949129E0,1.099119191E1
1.375391500E0,-2.338127000E0,-1.009968861E1,2.407178816E0,1.064260577E1
1.385326500E0,-2.432917382E0,-9.738247647E0,1.771519817E0,1.019268545E1
1.395262500E0,-2.390550504E0,-9.388594676E0,1.339298898E0,9.780294640E0
1.405197500E0,-2.287762154E0,-8.986577550E0,1.192151962E0,9.349527156E0
1.415133500E0,-2.035647611E0,-8.811552259E0,1.165086955E0,9.118373870E0
1.425068500E0,-1.606376759E0,-8.965352157E0,1.011827340E0,9.164157362E0
1.435003500E0,-1.130739825E0,-9.079666393E0,6.249562562E-1,9.171122324E0
1.444939500E0,-6.911239332E-1,-9.030321740E0,1.384304917E-1,9.057788142E0
1.454874500E0,-3.952267545E-1,-8.926655284E0,-3.852262616E-1,8.943700466E0
1.464810500E0,-3.282597631E-1,-8.695245878E0,-8.462698603E-1,8.742495526E0
1.474745500E0,-3.459098759E-1,-8.505305509E0,-1.103298842E0,8.583539117E0
1.484681500E0,-3.651138863E-1,-8.544806959E0,-1.227522354E0,8.640245671E0
1.494616500E0,-3.892038301E-1,-8.633909755E0,-1.368689927E0,8.750382243E0
1.504551500E0,-4.126345003E-1,-8.612731140E0,-1.572859495E0,8.764889726E0
1.514487500E0,-2.578765360E-1,-8.735191131E0,-1.817283635E0,8.925950046E0
1.524422500E0,-5.726909190E-2,-9.039843931E0,-2.128172489E0,9.287151134E0
1.534358500E0,-4.808457792E-3,-9.208335543E0,-2.349566785E0,9.503364176E0
1.544293500E0,-5.355991066E-2,-9.359232883E0,-2.551576391E0,9.700961339E0
1.554229500E0,8.556610733E-2,-9.571402611E0,-3.128015960E0,1.006993314E1
1.564164500E0,3.698453070E-1,-9.618045266E0,-3.932717380E0,1.039758848E1
1.574100500E0,7.796129175E-1,-9.441923037E0,-4.713260151E0,1.058170724E1
1.584035500E0,1.523470257E0,-9.190220869E0,-5.388941295E0,1.076205415E1
1.593970500E0,2.343529389E0,-8.748861337E0,-5.713640689E0,1.070889325E1
1.603906500E0,2.912835208E0,-8.196609945E0,-5.710880218E0,1.040592026E1
1.613841500E0,3.213430333E0,-7.639983666E0,-5.673650411E0,1.004419205E1
1.623777500E0,3.510717979E0,-7.221280341E0,-5.678249246E0,9.834355342E0
1.633710833E0,3.711062298E0,-6.849338368E0,-5.737718353E0,9.675062344E0
1.643646833E0,3.595065234E0,-6.329853603E0,-5.777247285E0,9.293445371E0
1.653581833E0,3.370694121E0,-5.961039307E0,-5.424690587E0,8.736294205E0
1.663516833E0,3.111580607E0,-5.965249302E0,-4.848680204E0,8.293119607E0
1.673452833E0,2.799743626E0,-6.105985351E0,-4.287096655E0,7.968740127E0
1.683387833E0,2.790102152E0,-6.070211501E0,-3.960110123E0,7.766248121E0
1.693323833E0,3.093664153E0,-5.930170686E0,-4.003083943E0,7.795021700E0
1.703258833E0,3.259081592E0,-5.860486493E0,-4.241502407E0,7.934560947E0
1.713194833E0,3.103350651E0,-5.657579924E0,-4.401862296E0,7.811234699E0
1.723129833E0,2.883039844E0,-5.424387116E0,-4.228988780E0,7.457897856E0
1.733064833E0,3.072309537E0,-5.236068181E0,-3.932703347E0,7.233370687E0
1.743000833E0,3.798099273E0,-5.016746723E0,-3.626146401E0,7.262385524E0
1.752935833E0,4.751497141E0,-4.595211591E0,-3.379491842E0,7.423857471E0
1.762871833E0,5.302983717E0,-4.033273702E0,-3.521719515E0,7.536009647E0
1.772806833E0,5.109753120E0,-3.548072916E0,-4.130238664E0,7.467079066E0
1.782742833E0,4.270215451E0,-3.183378568E0,-4.632674702E0,7.059059002E0
1.792677833E0,3.705262445E0,-2.826348165E0,-4.661528957E0,6.591438838E0
1.802613833E0,3.930990697E0,-2.495660053E0,-4.505062144E0,6.478934471E0
1.812548833E0,4.592943164E0,-2.268952977E0,-4.286087426E0,6.679357749E0
1.822483833E0,5.393947096E0,-2.100725074E0,-4.106545746E0,7.097283218E0
1.832419833E0,6.138539139E0,-2.007388895E0,-4.205004671E0,7.706707288E0
1.842354833E0,6.633246912E0,-1.906512730E0,-4.306930996E0,8.135380138E0
1.852290833E0,6.827614793E0,-1.737517673E0,-4.509729976E0,8.364983914E0
1.862225833E0,6.637168640E0,-1.375217759E0,-4.545093352E0,8.160950007E0
1.872161833E0,6.691254215E0,-8.583847064E-1,-4.159109876E0,7.925143673E0
1.882096833E0,7.468348006E0,-7.208543935E-1,-3.576850573E0,8.312022198E0
1.892031833E0,8.226490971E0,-7.695690089E-1,-2.570540666E0,8.653038164E0
1.901967833E0,8.856282874E0,-8.706363773E-1,-1.284000610E0,8.991129607E0
1.911902833E0,9.306541868E0,-1.073102213E0,-7.159681678E-2,9.368478853E0
1.921838833E0,9.296836660E0,-1.368876307E0,8.532034886E-1,9.435727339E0
1.931773833E0,8.844297252E0,-1.405135915E0,1.785878824E0,9.131558683E0
1.941709833E0,8.219150961E0,-1.134118493E0,2.727052503E0,8.733698107E0
1.951644833E0,7.961802136E0,-7.815390634E-1,3.836144181E0,8.872265705E0
1.961580833E0,8.223424691E0,-6.175558738E-1,4.864412722E0,9.574372044E0
1.971515833E0,8.858672047E0,-4.453023825E-1,5.582992841E0,1.048065712E1
1.981450833E0,9.909578083E0,-4.348640062E-1,5.777434396E0,1.147900661E1
1.991386833E0,1.080666025E1,-9.596954651E-1,5.377690668E0,1.210885948E1
2.001321833E0,1.164367747E1,-1.843652384E0,4.671030098E0,1.268041014E1
2.011257833E0,1.175208251E1,-2.896201926E0,4.342350504E0,1.285906050E1
2.021192833E0,1.047415014E1,-4.018913817E0,4.804078812E0,1.220404288E1
2.031128833E0,7.706099303E0,-5.456303558E0,6.306715001E0,1.135472893E1
2.041063833E0,4.147180386E0,-6.758175598E0,8.343686714E0,1.151039315E1
2.050998833E0,7.040898415E-1,-7.398568504E0,1.063120168E1,1.297139189E1
2.060934833E0,-1.264692958E0,-7.249616532E0,1.268236751E1,1.466283853E1
2.070869833E0,-2.095300466E0,-6.604748168E0,1.386442659E1,1.549952603E1
2.080805833E0,-2.689308726E0,-6.101623328E0,1.374734896E1,1.527912930E1
2.090740833E0,-2.715729954E0,-6.088048432E0,1.243330886E1,1.410768203E1
2.100676833E0,-2.034364585E0,-6.309177849E0,1.024649816E1,1.220389646E1
2.110611833E0,-1.586472106E0,-6.353730708E0,7.918457311E0,1.027563885E1
2.120546833E0,-1.374982262E0,-6.120960070E0,5.832146793E0,8.565667786E0
2.130482833E0,-1.258497833E0,-5.855414618E0,4.150408634E0,7.286672010E0
2.140417833E0,-1.452633579E0,-5.372452732E0,3.427389894E0,6.536084007E0
2.150353833E0,-1.420482079E0,-5.006319968E0,3.741145638E0,6.409148122E0
2.160288833E0,-1.336547491E0,-5.041809644E0,4.606342351E0,6.958778164E0
2.170224833E0,-1.601427237E0,-5.216238518E0,5.539511191E0,7.775596293E0
2.180159833E0,-1.815059938E0,-5.623967789E0,6.144893308E0,8.525442513E0
2.190095833E0,-1.939088738E0,-6.409096239E0,6.083650741E0,9.046954519E0
2.200030833E0,-2.210145044E0,-6.854773940E0,5.695541802E0,9.182149166E0
2.209965833E0,-2.254737811E0,-7.008058698E0,5.430508566E0,9.148068244E0
2.219901833E0,-2.132974954E0,-6.981418784E0,5.442320527E0,9.105418338E0
2.229836833E0,-1.921464938E0,-6.927743098E0,5.527210404E0,9.068390529E0
2.239772833E0,-2.021229546E0,-7.067350634E0,5.642781206E0,9.266811404E0
2.249707833E0,-2.275103809E0,-7.285007975E0,5.680185844E0,9.513776840E0
2.259643833E0,-2.308482201E0,-7.517855211E0,5.487827652E0,9.589759611E0
2.269578833E0,-2.102120512E0,-8.031328454E0,4.786983308E0,9.583128747E0
2.279513833E0,-1.877407629E0,-8.660215209E0,3.684593707E0,9.596885831E0
2.289449833E0,-1.712027906E0,-9.087321568E0,2.413561052E0,9.556972835E0
2.299384833E0,-1.516589546E0,-9.301761770E0,1.507069548E0,9.544321584E0
2.309320833E0,-1.284074431E0,-9.342266017E0,1.230563491E0,9.510050893E0
2.319255833E0,-1.065921393E0,-9.132229353E0,1.151077026E0,9.266001279E0
2.329191833E0,-8.277987984E-1,-8.731906750E0,9.825298655E-1,8.825917022E0
2.339126833E0,-4.931176230E-1,-8.460996478E0,9.347493428E-1,8.526745143E0
2.349062833E0,-4.267733601E-1,-8.339793053E0,8.476427865E-1,8.393615548E0
2.358997833E0,-6.624942112E-1,-8.118349056E0,9.108851016E-1,8.196108933E0
2.368932833E0,-1.081579944E0,-8.006340963E0,1.154004727E0,8.161068416E0
2.378868833E0,-1.570923482E0,-8.145128134E0,1.323077552E0,8.400086138E0
2.388803833E0,-2.053716384E0,-8.391060855E0,1.158742141E0,8.716096409E0
2.398739833E0,-2.175580544E0,-8.558666614E0,5.501124805E-1,8.847968618E0
2.408674833E0,-1.924092676E0,-8.690901396E0,-2.108798325E-1,8.903840183E0
2.418610833E0,-1.613230719E0,-8.656269507E0,-9.678141779E-1,8.858339541E0
2.428545833E0,-9.459675184E-1,-8.676372820E0,-1.637642552E0,8.880099829E0
2.438480833E0,-1.634688538E-1,-9.026107067E0,-2.181351746E0,9.287390715E0
2.448416833E0,3.127143556E-1,-9.264737785E0,-2.870592291E0,9.704300933E0
2.458351833E0,5.713685712E-1,-9.144850568E0,-3.562909057E0,9.831026137E0
2.468287833E0,6.828875452E-1,-9.087795192E0,-3.850724798E0,9.893555394E0
2.478222833E0,6.655224842E-1,-9.311131933E0,-3.980606076E0,1.014816844E1
2.488158833E0,7.479360652E-1,-9.687493815E0,-4.003196209E0,1.050868806E1
2.498093833E0,8.611662269E-1,-9.954027447E0,-3.929341198E0,1.073610693E1
2.508029833E0,9.424515876E-1,-9.957783698E0,-4.084937653E0,1.080427632E1
2.517964833E0,1.099476517E0,-9.935332729E0,-4.261556602E0,1.086648746E1
2.527899833E0,1.201186641E0,-1.001494491E1,-4.184168118E0,1.092012975E1
2.537835833E0,1.362926766E0,-1.014488290E1,-4.099580835E0,1.102645825E1
2.547770833E0,1.630033862E0,-1.021217968E1,-4.266893941E0,1.118713583E1
2.557706833E0,1.840550875E0,-1.006574786E1,-4.383022275E0,1.113183685E1
2.567641833E0,2.129925485E0,-9.736744328E0,-4.373638371E0,1.088436885E1
2.577577833E0,2.373966924E0,-9.488140599E0,-4.472831706E0,1.075484795E1
2.587512833E0,2.568092437E0,-9.317511830E0,-4.429876306E0,1.063178863E1
2.597447833E0,2.910715300E0,-8.980392365E0,-4.441228675E0,1.043284346E1
2.607383833E0,3.457728757E0,-8.492451575E0,-4.807033118E0,1.035302803E1
2.617318833E0,3.873761074E0,-7.900809245E0,-5.271778881E0,1.025770267E1
2.627254833E0,4.014471395E0,-7.320429822E0,-5.852139008E0,1.019569538E1
2.637189708E0,4.223243599E0,-6.916836872E0,-6.656770261E0,1.048765985E1
2.647125708E0,4.285069133E0,-6.654413248E0,-7.288258442E0,1.075926318E1
2.657060708E0,3.868186923E0,-6.284012602E0,-7.484633671E0,1.051053879E1
2.666995708E0,3.319114955E0,-5.943531573E0,-7.422246219E0,1.007133708E1
2.676931708E0,3.041835895E0,-5.792220250E0,-7.197686825E0,9.726730010E0
2.686866708E0,2.975942453E0,-5.683952036E0,-6.790484973E0,9.342067780E0
2.696802708E0,3.189703501E0,-5.604209463E0,-6.273799270E0,8.996773278E0
2.706737708E0,3.509562862E0,-5.424602879E0,-5.748621656E0,8.648121115E0
2.716673708E0,3.685175505E0,-5.089310085E0,-5.531532081E0,8.371346535E0
2.726608708E0,3.698646613E0,-4.548270729E0,-5.312906442E0,7.911619824E0
2.736544708E0,4.197070877E0,-3.896815476E0,-4.856142420E0,7.508841056E0
2.746479708E0,5.217651206E0,-3.135626112E0,-4.330754306E0,7.470707334E0
2.756414708E0,6.179721664E0,-2.226831974E0,-3.820150877E0,7.598769190E0
2.766350708E0,7.195911026E0,-1.712046032E0,-3.789659402E0,8.311062236E0
2.776285708E0,7.605679221E0,-1.581333280E0,-3.522653900E0,8.529716400E0
2.786221708E0,7.296051026E0,-1.578983869E0,-3.035691934E0,8.058596413E0
2.796156708E0,7.137450564E0,-1.494080836E0,-2.654236541E0,7.760183613E0
2.806092708E0,6.925664413E0,-1.107854408E0,-2.637552096E0,7.493253633E0
2.816027708E0,7.024678824E0,-7.086535934E-1,-2.847301077E0,7.612846112E0
2.825962708E0,7.627918521E0,-5.878578655E-1,-3.181944830E0,8.285860893E0
2.835898708E0,7.823143018E0,-9.161458415E-1,-3.206087984E0,8.504110186E0
2.845833708E0,7.985478097E0,-1.671678025E0,-2.691335955E0,8.591021888E0
2.855769708E0,7.792741005E0,-2.678418286E0,-1.326769484E0,8.346319797E0
2.865704708E0,7.636146723E0,-3.644459296E0,2.446311307E-1,8.464789704E0
2.875640708E0,7.370668514E0,-4.405375888E0,1.714126471E0,8.756273215E0
2.885575708E0,6.422777554E0,-4.952042019E0,3.299179165E0,8.755533955E0
2.895510708E0,5.178053861E0,-5.258892202E0,4.841344872E0,8.826483397E0
2.905446708E0,4.608270763E0,-5.081437393E0,6.211283180E0,9.254037181E0
2.915381708E0,4.305648116E0,-4.904162971E0,7.609640710E0,1.002477191E1
2.925317708E0,3.889443891E0,-5.048502951E0,9.235373068E0,1.122084095E1
2.935252708E0,3.486966004E0,-5.095550233E0,1.088535441E1,1.251457170E1
2.945188708E0,2.824557163E0,-5.015062140E0,1.248427670E1,1.374722286E1
2.955123708E0,2.646167969E0,-4.820668532E0,1.376494674E1,1.482278006E1
2.965059708E0,3.376623783E0,-4.248982750E0,1.430371855E1,1.529875181E1
2.974994708E0,4.278056568E0,-3.341218892E0,1.409880755E1,1.510767639E1
2.984929708E0,5.077488184E0,-2.700455858E0,1.355404703E1,1.472363878E1
2.994865708E0,5.106224910E0,-2.599918539E0,1.288806554E1,1.410444407E1
3.004800708E0,4.362135728E0,-2.633972138E0,1.221271681E1,1.323315870E1
3.014736708E0,3.664664642E0,-2.638223064E0,1.160865499E1,1.245595675E1
3.024671708E0,3.510194946E0,-2.802256467E0,1.088091521E1,1.177150906E1
3.034607708E0,3.715707034E0,-3.158546612E0,9.744784834E0,1.089695953E1
3.044542708E0,3.709680601E0,-3.709394673E0,8.553580121E0,1.003419513E1
3.054477708E0,3.305845576E0,-4.010867756E0,7.832088089E0,9.399855263E0
3.064413708E0,2.833651337E0,-4.269325213E0,7.644658515E0,9.203125637E0
3.074348708E0,2.299720880E0,-4.889881732E0,7.527049373E0,9.265858392E0
3.084284708E0,1.750527435E0,-5.741285740E0,7.069495393E0,9.273859680E0
3.094219708E0,9.898882940E-1,-6.424548091E0,6.505787551E0,9.196736849E0
3.104155708E0,3.502761380E-1,-6.759858427E0,6.008172542E0,9.050774366E0
3.114090708E0,6.776118949E-2,-6.939320000E0,5.844387939E0,9.072795822E0
3.124026708E0,2.299489184E-1,-7.331024392E0,5.830351698E0,9.369620914E0
3.133961708E0,4.481241757E-1,-7.837212589E0,5.695773937E0,9.698688425E0
3.143896708E0,4.069045213E-1,-8.276584652E0,5.509675773E0,9.951077928E0
3.153832708E0,3.871444407E-1,-8.999299922E0,5.351550105E0,1.047742184E1
3.163767708E0,1.322920847E-1,-9.932860526E0,5.060653465E0,1.114851707E1
3.173703708E0,-4.161501387E-1,-1.078641017E1,4.601875078E0,1.173443989E1
3.183638708E0,-1.071367344E0,-1.121700732E1,3.912239846E0,1.192789595E1
3.193574708E0,-1.342604183E0,-1.147713942E1,3.033231425E0,1.194687440E1
3.203509708E0,-1.638558518E0,-1.154621842E1,2.321745148E0,1.189077518E1
3.213444708E0,-1.938110937E0,-1.137928860E1,1.846981643E0,1.168998821E1
3.223380708E0,-2.100613246E0,-1.119317640E1,1.491220086E0,1.148579607E1
3.233315708E0,-2.231326583E0,-1.103847428E1,1.160447774E0,1.132136793E1
3.243251708E0,-2.430117443E0,-1.090799016E1,8.768864661E-1,1.120975691E1
3.253186708E0,-2.684583591E0,-1.067568496E1,7.128603727E-1,1.103111092E1
3.263122708E0,-2.886691430E0,-1.033124185E1,6.080829459E-1,1.074417566E1
3.273057708E0,-3.035546338E0,-9.993899610E0,4.046542203E-1,1.045257461E1
3.282993708E0,-3.013240964E0,-9.857105169E0,1.722180426E-2,1.030739734E1
3.292928708E0,-3.041188316E0,-9.696382168E0,-3.864249408E-1,1.016946300E1
3.302863708E0,-3.100614154E0,-9.537613306E0,-7.016974533E-1,1.005346980E1
3.312799708E0,-3.036912248E0,-9.370014564E0,-9.846863186E-1,9.898970455E0
3.322734708E0,-2.997795252E0,-9.051336048E0,-1.155728486E0,9.604643094E0
3.332670708E0,-2.832013532E0,-8.808579535E0,-1.094023989E0,9.317095178E0
3.342605708E0,-2.535391883E0,-8.729400049E0,-9.321379763E-1,9.137807090E0
3.352541708E0,-2.090317031E0,-8.723156977E0,-8.501594281E-1,9.010308762E0
3.362476708E0,-1.496728747E0,-8.703688087E0,-9.742806137E-1,8.885021440E0
3.372411708E0,-8.905519938E-1,-8.684794564E0,-1.459510635E0,8.851492008E0
3.382347708E0,-2.813954991E-1,-8.728351643E0,-2.237739955E0,9.015031111E0
3.392282708E0,2.861940166E-1,-8.824062377E0,-2.985293612E0,9.319761896E0
3.402218708E0,6.522510588E-1,-9.064035031E0,-3.176557206E0,9.626664956E0
3.412153708E0,6.240984696E-1,-9.329611473E0,-2.896301329E0,9.788754289E0
3.422089708E0,6.391787311E-1,-9.634147913E0,-2.447171432E0,9.960622645E0
3.432024708E0,1.028318534E0,-9.850979626E0,-2.341298822E0,1.017747114E1
3.441959708E0,1.422821550E0,-9.756126094E0,-2.922526384E0,1.028336414E1
3.451895708E0,1.785428881E0,-9.480767845E0,-4.006555434E0,1.044630086E1
3.461830708E0,2.082959187E0,-9.266549837E0,-5.169715147E0,1.081358495E1
3.471766708E0,2.233372085E0,-8.907354795E0,-5.721366615E0,1.081956359E1
3.481701708E0,2.128590858E0,-8.301886724E0,-5.671313279E0,1.027696534E1
3.491637708E0,1.969027652E0,-7.936725183E0,-5.297570364E0,9.743353031E0
3.501572708E0,2.067061192E0,-7.886263711E0,-4.719381893E0,9.420109487E0
3.511508708E0,2.514733670E0,-7.767717261E0,-4.251007056E0,9.205019167E0
3.521443708E0,3.186998871E0,-7.435104831E0,-4.296586686E0,9.159607132E0
3.531378708E0,3.681306110E0,-6.970101498E0,-4.598364995E0,9.125748747E0
3.541314708E0,3.752055373E0,-6.614987812E0,-4.917642850E0,9.056444914E0
3.551249708E0,3.484550227E0,-6.475308940E0,-5.159476672E0,8.982867899E0
3.561185708E0,2.972882897E0,-6.389049060E0,-5.174861866E0,8.742835693E0
3.571120708E0,2.672655855E0,-6.148968818E0,-5.114457790E0,8.432709252E0
3.581056708E0,2.725501236E0,-5.867395563E0,-5.209483815E0,8.306227140E0
3.590991708E0,2.765911051E0,-5.539094285E0,-5.342506801E0,8.177665215E0
3.600926708E0,3.127958365E0,-5.264811924E0,-5.551839461E0,8.265911294E0
3.610862708E0,3.539596500E0,-5.053967174E0,-5.784000235E0,8.457303725E0
3.620797708E0,3.800491076E0,-4.832108025E0,-5.717324435E0,8.395284336E0
3.630734208E0,3.845894706E0,-4.692762444E0,-5.358260370E0,8.094682183E0
3.640669208E0,3.682742771E0,-4.595679368E0,-4.882512193E0,7.649953496E0
3.650605208E0,3.544181887E0,-4.410129674E0,-4.305301961E0,7.109577622E0
3.660540208E0,3.940017629E0,-4.113615029E0,-3.664836550E0,6.773226297E0
3.670475208E0,4.765847962E0,-3.596875532E0,-3.178423637E0,6.764110970E0
3.680411208E0,5.755069966E0,-2.746060631E0,-2.855583658E0,6.986847453E0
3.690346208E0,6.510770549E0,-1.735916120E0,-2.816472217E0,7.303153679E0
3.700282208E0,7.288236222E0,-1.275879120E0,-2.894050736E0,7.944921927E0
3.710217208E0,7.623959956E0,-9.646669140E-1,-2.490876446E0,8.078354606E0
3.720153208E0,7.689328319E0,-9.027294052E-1,-2.010491427E0,7.998922812E0
3.730088208E0,7.631087712E0,-1.039918241E0,-1.466878712E0,7.840067778E0
3.740024208E0,7.357880069E0,-1.212026940E0,-9.718809164E-1,7.520103784E0
3.749959208E0,6.964050214E0,-1.123443085E0,-4.198792005E-1,7.066570476E0
3.759894208E0,7.050091408E0,-9.099048159E-1,-1.152076900E-2,7.108575691E0
3.769830208E0,7.409369481E0,-8.484874168E-1,2.971280175E-1,7.463710341E0
3.779765208E0,7.583370339E0,-9.667852141E-1,5.522858906E-1,7.664672143E0
3.789701208E0,7.657512449E0,-1.193688391E0,1.014545125E0,7.816117367E0
3.799636208E0,7.693583338E0,-1.408846850E0,1.809572911E0,8.028114856E0
3.809572208E0,7.650857733E0,-1.449060053E0,2.665275500E0,8.230376211E0
3.819507208E0,7.554327804E0,-1.322379249E0,3.567078121E0,8.458167755E0
3.829442208E0,7.595583419E0,-1.051166383E0,4.439762778E0,8.860549179E0
3.839378208E0,7.920792689E0,-7.876619752E-1,5.025675421E0,9.413648690E0
3.849313208E0,8.190148187E0,-7.012447326E-1,5.490871713E0,9.885339835E0
3.859249208E0,8.215432717E0,-6.481328648E-1,5.777226235E0,1.006428109E1
3.869184208E0,8.375344709E0,-5.460404795E-1,5.803106596E0,1.020395048E1
3.879120208E0,8.245311989E0,-3.906960395E-1,5.857722514E0,1.012179462E1
3.889055208E0,8.121506553E0,-2.960581233E-1,5.906195932E0,1.004637594E1
3.898991208E0,7.972245848E0,-4.511214584E-1,5.999076029E0,9.987448505E0
3.908926208E0,7.639838070E0,-9.426737818E-1,6.376506198E0,9.995778654E0
3.918861208E0,7.360086223E0,-1.606604362E0,6.613836495E0,1.002471346E1
3.928797208E0,7.138273267E0,-2.273775468E0,6.641385652E0,1.001164340E1
3.938732208E0,6.775041307E0,-2.651099803E0,6.728146053E0,9.909463365E0
3.948668208E0,6.393508147E0,-2.936842707E0,6.657342703E0,9.686186214E0
3.958603208E0,6.226309939E0,-3.348948326E0,6.681988717E0,9.727865314E0
3.968539208E0,5.616117902E0,-3.836773927E0,6.825237899E0,9.635636297E0
3.978474208E0,4.734943088E0,-4.449379986E0,6.703502963E0,9.335610333E0
3.988409208E0,3.908582997E0,-5.057039301E0,6.457956743E0,9.086026240E0
3.998345208E0,2.804877189E0,-5.782253087E0,6.462435125E0,9.113992240E0
4.008280208E0,1.787137730E0,-6.699856639E0,6.848322707E0,9.745843429E0
4.018216208E0,8.818910980E-1,-7.540855234E0,7.445129882E0,1.063354073E1
4.028151208E0,2.936898547E-1,-8.197910365E0,7.862318779E0,1.136257210E1
4.038087208E0,2.742928863E-3,-8.740058938E0,7.905760667E0,1.178514699E1
4.048022208E0,-1.602476227E-1,-9.209185143E0,7.789365408E0,1.206271046E1
4.057958208E0,-3.710754150E-1,-9.680541476E0,7.533939732E0,1.227236033E1
4.067893208E0,-6.506214398E-1,-1.004342670E1,7.334887063E0,1.245368605E1
4.077828208E0,-1.255856207E0,-1.017184675E1,7.257000396E0,1.255817248E1
4.087764208E0,-2.099267364E0,-1.039817610E1,7.182408636E0,1.281077607E1
4.097699208E0,-2.822080867E0,-1.058405675E1,7.058060578E0,1.303083331E1
4.107635208E0,-2.826441135E0,-1.049604680E1,7.167103549E0,1.302010526E1
4.117570208E0,-2.395213659E0,-1.022277483E1,7.485484441E0,1.289475285E1
4.127506208E0,-1.958534823E0,-9.954012244E0,7.858560773E0,1.283258337E1
4.137441208E0,-1.605299848E0,-9.863535937E0,8.061298943E0,1.283942637E1
4.147376208E0,-1.296460734E0,-9.870657846E0,8.071357323E0,1.281629844E1
4.157312208E0,-9.880505142E-1,-9.687620115E0,7.976674529E0,1.258783396E1
4.167247208E0,-6.451455224E-1,-9.519951206E0,7.546232334E0,1.216516774E1
4.177183208E0,-3.826143104E-1,-9.398212177E0,6.787058505E0,1.159900638E1
4.187118208E0,-3.873809606E-1,-9.310774083E0,5.755094524E0,1.095270245E1
4.197054208E0,-3.957895491E-1,-9.256227747E0,4.753358894E0,1.041291613E1
4.206989208E0,-4.211117935E-1,-9.154365742E0,3.808077546E0,9.923769540E0
4.216924208E0,-3.367841265E-1,-8.913366902E0,3.017304779E0,9.416244538E0
4.226860208E0,-1.029280986E-1,-8.702352583E0,2.374067203E0,9.020960579E0
4.236795208E0,1.530640259E-2,-8.467776325E0,1.619655932E0,8.621296626E0
4.246731208E0,3.084024726E-1,-8.063961765E0,6.994228864E-1,8.100110110E0
4.256666208E0,1.032936373E0,-7.742955472E0,-3.027039224E-1,7.817413042E0
4.266602208E0,1.855353101E0,-7.452117305E0,-1.390065594E0,7.804400670E0
4.276537208E0,2.308209721E0,-7.072307319E0,-2.434333870E0,7.827601441E0
4.286473208E0,2.465667930E0,-6.785258147E0,-3.116408653E0,7.863284896E0
4.296408208E0,2.278403832E0,-6.587589514E0,-3.156070901E0,7.651682374E0
4.306343208E0,1.766057348E0,-6.715668095E0,-2.903603917E0,7.526624225E0
4.316279208E0,1.057795518E0,-6.989842867E0,-2.489082520E0,7.494822644E0
4.326214208E0,2.404182301E-1,-7.325868902E0,-2.048400388E0,7.610657018E0
4.336150208E0,-6.184503517E-1,-7.688268803E0,-1.757959246E0,7.910902524E0
4.346085208E0,-1.432758454E0,-8.012775239E0,-1.723063356E0,8.320235041E0
4.356021208E0,-2.174133066E0,-8.400991766E0,-1.940213158E0,8.892015764E0
4.365956208E0,-2.503954913E0,-8.861267626E0,-2.472757094E0,9.534483824E0
4.375891208E0,-2.263806550E0,-9.100308818E0,-3.481604400E0,1.000310001E1
4.385827208E0,-1.800996215E0,-9.109210035E0,-4.482652982E0,1.031093946E1
4.395762208E0,-1.470301379E0,-9.003784736E0,-5.157551184E0,1.047999332E1
4.405698208E0,-1.518015975E0,-8.794946167E0,-5.469621177E0,1.046767435E1
4.415633208E0,-1.738564032E0,-8.670277097E0,-5.616174620E0,1.047557765E1
4.425569208E0,-2.147807586E0,-8.721911520E0,-5.482252917E0,1.052330343E1
4.435504208E0,-2.765932978E0,-8.918539349E0,-4.943315635E0,1.056537263E1
4.445440208E0,-3.251450975E0,-9.322616449E0,-3.991933010E0,1.064981878E1
4.455375208E0,-3.498508993E0,-9.708127470E0,-2.869711993E0,1.071086136E1
4.465310208E0,-3.411998268E0,-9.930908725E0,-2.009330755E0,1.069121557E1
4.475246208E0,-3.035754791E0,-1.018536786E1,-2.031578241E0,1.082057465E1
4.485181208E0,-2.369476262E0,-1.032216931E1,-2.718550651E0,1.093398897E1
4.495117208E0,-1.505179436E0,-1.006771720E1,-3.517875848E0,1.077032707E1
4.505052208E0,-2.034901214E-1,-9.375263609E0,-4.148185230E0,1.025399516E1
4.514988208E0,1.424253679E0,-8.243417491E0,-4.744014166E0,9.617073405E0
4.524923208E0,2.775244085E0,-7.020724937E0,-5.220851387E0,9.178771572E0
4.534858208E0,3.623772140E0,-5.944055484E0,-5.725566670E0,9.013635992E0
4.544794208E0,4.061473069E0,-5.159923984E0,-6.574341477E0,9.292058161E0
4.554729208E0,4.095399783E0,-4.789904577E0,-7.329343902E0,9.666166111E0
4.564665208E0,3.807714434E0,-4.697648377E0,-7.585651338E0,9.700963649E0
4.574600208E0,3.449461378E0,-4.740599100E0,-7.491030525E0,9.512497146E0
4.584536208E0,3.479267560E0,-4.767743629E0,-7.075763608E0,9.214288508E0
4.594471208E0,4.046760889E0,-4.699681454E0,-6.538132010E0,9.011684062E0
4.604407208E0,5.071689500E0,-4.317131463E0,-5.761254566E0,8.806345021E0
4.614342208E0,6.382747516E0,-3.646115520E0,-4.883110948E0,8.824873754E0
4.624277208E0,7.737572526E0,-2.843566461E0,-3.925846317E0,9.130617072E0
4.634212750E0,8.701025265E0,-2.045120977E0,-2.796865919E0,9.365512236E0
4.644147750E0,9.656277870E0,-1.431960309E0,-1.774356301E0,9.921822056E0
4.654083750E0,1.043984804E1,-6.470996618E-1,-3.040271473E-1,1.046430110E1
4.664018750E0,1.081802490E1,-5.197736174E-2,1.145177770E0,1.087859349E1
4.673954750E0,1.070573964E1,1.320283753E-1,2.000289790E0,1.089180665E1
4.683889750E0,1.041212405E1,-4.353208199E-2,2.176796765E0,1.063732421E1
4.693824750E0,1.019371417E1,-3.151030894E-1,1.732743421E0,1.034473288E1
4.703760750E0,1.020480868E1,-4.259877867E-1,1.002324445E0,1.026275987E1
4.713695750E0,1.021341578E1,-3.225723226E-1,3.331825340E-1,1.022393884E1
4.723631750E0,1.010015989E1,-2.521500653E-1,1.192966479E-1,1.010401114E1
4.733566750E0,9.963459005E0,-3.294911136E-1,4.721550626E-1,9.980080668E0
4.743502750E0,9.891657536E0,-4.977041790E-1,1.302007695E0,9.989385482E0
4.753437750E0,9.890041366E0,-4.708058175E-1,2.428420581E0,1.019469484E1
4.763372750E0,9.982214534E0,-1.861263759E-1,3.603006338E0,1.061418413E1
4.773308750E0,1.003471084E1,1.283789818E-1,4.611986083E0,1.104456058E1
4.783243750E0,1.008258316E1,6.308806551E-1,5.341692869E0,1.142760589E1
4.793179750E0,1.015605927E1,1.235283363E0,5.829887429E0,1.177535784E1
4.803114750E0,9.941363547E0,1.559724310E0,5.904695536E0,1.166742810E1
4.813050750E0,9.659989682E0,1.118799519E0,5.790827444E0,1.131816220E1
4.822985750E0,9.295467827E0,-9.012605846E-2,5.593647053E0,1.084908900E1
4.832921750E0,8.334064536E0,-1.569323392E0,5.801278757E0,1.027493274E1
4.842856750E0,7.077029530E0,-2.760209139E0,6.740025256E0,1.015534549E1
4.852791750E0,5.907223288E0,-3.728833449E0,8.242203609E0,1.080432350E1
4.862727750E0,4.835590042E0,-4.443946461E0,9.834180576E0,1.182551051E1
4.872662750E0,3.860336452E0,-4.988909883E0,1.098770174E1,1.266968858E1
4.882598750E0,3.122744111E0,-5.542215528E0,1.135467650E1,1.301523577E1
4.892533750E0,2.584944697E0,-6.279896747E0,1.104287606E1,1.296395596E1
4.902469750E0,2.430573526E0,-7.195975345E0,1.029187840E1,1.279111058E1
4.912404750E0,2.316234732E0,-7.771324409E0,9.583484713E0,1.255394781E1
4.922339750E0,2.157604449E0,-8.051474451E0,9.101342021E0,1.234163378E1
4.932275750E0,2.322103583E0,-8.574659919E0,8.890624741E0,1.256822048E1
4.942210750E0,2.179364862E0,-9.095934516E0,8.941259875E0,1.293954343E1
4.952146750E0,1.786618497E0,-9.556269432E0,9.091719258E0,1.331065927E1
4.962081750E0,1.406263551E0,-1.021704456E1,9.051374055E0,1.372198779E1
4.972017750E0,9.393744904E-1,-1.094619002E1,8.745113271E0,1.404202644E1
4.981952750E0,4.783952111E-1,-1.166217105E1,8.111436478E0,1.421374325E1
4.991888750E0,3.870272040E-3,-1.223028301E1,7.580513974E0,1.438902462E1
5.001823750E0,-2.367642868E-1,-1.263690423E1,7.323370387E0,1.460750354E1
5.011758750E0,-3.956419069E-1,-1.283985524E1,7.103898071E0,1.467936589E1
5.021694750E0,-5.719126546E-1,-1.282549799E1,6.581108460E0,1.442676233E1
5.031629750E0,-9.483426574E-1,-1.249613369E1,5.846646718E0,1.382881010E1
5.041565750E0,-1.055448153E0,-1.207635272E1,5.252043359E0,1.321121589E1
5.051500750E0,-1.083663015E0,-1.156136505E1,5.076000652E0,1.267301345E1
5.061436750E0,-1.182974465E0,-1.111553123E1,5.140937490E0,1.230380841E1
5.071371750E0,-1.112886522E0,-1.086684330E1,5.165716821E0,1.208351894E1
5.081306750E0,-9.577598906E-1,-1.073731812E1,4.903285012E0,1.184269852E1
5.091242750E0,-8.065295514E-1,-1.069065850E1,4.166614192E0,1.150223209E1
5.101177750E0,-7.378655519E-1,-1.074196665E1,2.982936600E0,1.117283330E1
5.111113750E0,-7.508690286E-1,-1.092043186E1,1.739159571E0,1.108351534E1
5.121048750E0,-9.175700770E-1,-1.093045165E1,6.655441189E-1,1.098906989E1
5.130984750E0,-1.221558267E0,-1.063385397E1,-1.236113083E-1,1.070450068E1
5.140919750E0,-1.649917027E0,-1.029235670E1,-6.594022036E-1,1.044459879E1
5.150855750E0,-2.149630894E0,-9.968836105E0,-9.278847116E-1,1.024009650E1
5.160790750E0,-2.611528478E0,-9.633031679E0,-9.760382867E-1,1.002836134E1
5.170725750E0,-3.006103268E0,-9.426985155E0,-8.775331682E-1,9.933517526E0
5.180661750E0,-3.213210477E0,-9.533538381E0,-8.395613497E-1,1.009544149E1
5.190596750E0,-3.250154940E0,-9.540027621E0,-1.177028139E0,1.014697144E1
5.200532750E0,-3.009840516E0,-9.265897872E0,-1.715697326E0,9.892402167E0
5.210467750E0,-2.613901278E0,-8.992952769E0,-2.284651582E0,9.639777604E0
5.220403750E0,-2.274291485E0,-8.889015003E0,-2.856033601E0,9.609574258E0
5.230338750E0,-2.027773019E0,-8.811314278E0,-3.306399015E0,9.627221674E0
5.240273750E0,-1.877967939E0,-8.581837960E0,-3.637699330E0,9.508289161E0
5.250209750E0,-1.752725550E0,-8.441512386E0,-3.867119514E0,9.449115914E0
5.260144750E0,-1.689061212E0,-8.447192371E0,-3.857880329E0,9.438814935E0
5.270080750E0,-1.591682560E0,-8.494019213E0,-3.751499303E0,9.421017078E0
5.280015750E0,-1.445839114E0,-8.502128132E0,-3.626217445E0,9.355537744E0
5.289951750E0,-1.101892075E0,-8.442363741E0,-3.675652145E0,9.273515535E0
5.299886750E0,-5.456630418E-1,-8.252195331E0,-4.064030348E0,9.214815169E0
5.309822750E0,5.698550195E-3,-8.009714806E0,-4.552682745E0,9.213169049E0
5.319757750E0,5.983686742E-1,-7.836290483E0,-5.143900859E0,9.392827564E0
5.329692750E0,1.119912390E0,-7.662279099E0,-5.701431702E0,9.616186781E0
5.339628750E0,1.292784882E0,-7.476782030E0,-5.925431517E0,9.627268613E0
5.349563750E0,1.241969655E0,-7.287355047E0,-5.852572871E0,9.428713667E0
5.359499750E0,1.354927628E0,-7.050897154E0,-5.676121445E0,9.152558889E0
5.369434750E0,1.763231681E0,-6.622081654E0,-5.539538673E0,8.811778487E0
5.379370750E0,2.049687945E0,-6.201249357E0,-5.617463347E0,8.614674034E0
5.389305750E0,2.272266887E0,-5.845898860E0,-5.674371958E0,8.457909162E0
5.399240750E0,2.395061046E0,-5.576239892E0,-5.707377151E0,8.330961691E0
5.409176750E0,2.610664552E0,-5.281342587E0,-5.940499792E0,8.366462018E0
5.419111750E0,2.795966325E0,-4.991876176E0,-6.505731418E0,8.663763428E0
5.429047750E0,2.999275475E0,-4.890213561E0,-7.067748245E0,9.102906530E0
5.438982750E0,3.134760139E0,-4.613750773E0,-7.263803632E0,9.158398360E0
5.448918750E0,3.478010994E0,-4.194337596E0,-7.042482426E0,8.904245452E0
5.458853750E0,4.059779715E0,-3.787907576E0,-6.583863083E0,8.612624933E0
5.468788750E0,4.713626479E0,-3.302876360E0,-5.822795341E0,8.187320222E0
5.478724750E0,5.556649380E0,-2.644687454E0,-4.791689731E0,7.799423988E0
5.488659750E0,6.349252911E0,-1.966600472E0,-3.626264223E0,7.571678952E0
5.498595750E0,7.110263350E0,-1.265367288E0,-2.418720635E0,7.616246371E0
5.508530750E0,7.678565934E0,-5.915803492E-1,-1.275226278E0,7.806186276E0
5.518466750E0,7.916043581E0,-3.294493791E-1,-6.933645862E-1,7.953177812E0
5.528401750E0,7.776314422E0,-3.619251072E-1,-2.693677765E-1,7.789391169E0
5.538337750E0,7.397137105E0,-2.878753835E-1,-2.745454860E-1,7.407825917E0
5.548272750E0,7.027108342E0,-3.522988361E-1,-9.602853030E-1,7.101162861E0
5.558207750E0,6.671107049E0,-6.041436768E-1,-1.643063505E0,6.896978797E0
5.568143750E0,6.785301417E0,-8.499563836E-1,-2.206329297E0,7.185445716E0
5.578078750E0,7.392399691E0,-9.186064960E-1,-2.454012675E0,7.843059945E0
5.588014750E0,7.817970572E0,-8.168110031E-1,-2.270476177E0,8.181864466E0
5.597949750E0,8.017091069E0,-7.877829395E-1,-1.677085530E0,8.228424335E0
5.607885750E0,8.048225738E0,-9.860400952E-1,-6.159860426E-1,8.131768037E0
5.617820750E0,8.064597942E0,-1.152962899E0,6.369699454E-1,8.171462178E0
5.627755750E0,8.148022506E0,-1.158060356E0,1.814813186E0,8.427628459E0
5.637691958E0,8.115124902E0,-1.112120390E0,2.638580621E0,8.605473353E0
5.647626958E0,7.833135325E0,-1.137171032E0,3.209472352E0,8.541187257E0
5.657562958E0,7.837529508E0,-1.048893424E0,3.592436326E0,8.685196887E0
5.667497958E0,7.814653446E0,-1.046295506E0,3.878438846E0,8.786684850E0
5.677433958E0,7.538961321E0,-1.412567288E0,4.101599586E0,8.697953972E0
5.687368958E0,7.191064854E0,-1.847409659E0,4.715913325E0,8.795690687E0
5.697304958E0,6.762921783E0,-2.203135548E0,5.797528353E0,9.176178523E0
5.707239958E0,6.311118540E0,-2.539101942E0,7.078236980E0,9.817265130E0
5.717174958E0,5.912228504E0,-2.777027778E0,8.118159606E0,1.041973342E1
5.727110958E0,5.707929128E0,-3.041300583E0,8.871193859E0,1.097852652E1
5.737045958E0,5.248411653E0,-3.490484859E0,9.320140738E0,1.125141470E1
5.746981958E0,4.476723613E0,-4.096845507E0,9.478716642E0,1.125483303E1
5.756916958E0,3.705403948E0,-4.765520518E0,9.664157578E0,1.139456651E1
5.766852958E0,2.881880341E0,-5.399757475E0,1.001467711E1,1.173696607E1
5.776787958E0,2.064636936E0,-5.940724325E0,1.051990110E1,1.225655948E1
5.786722958E0,1.566197762E0,-6.399953533E0,1.100412657E1,1.282587939E1
5.796658958E0,1.080561360E0,-6.824029280E0,1.127287746E1,1.322167746E1
5.806593958E0,4.620282698E-1,-7.181911622E0,1.095063039E1,1.310380214E1
5.816529958E0,-4.945633471E-2,-7.783187824E0,1.008355848E1,1.273807718E1
5.826464958E0,-6.117666918E-1,-8.375319566E0,9.145484991E0,1.241612387E1
5.836400958E0,-1.226949912E0,-8.841558416E0,8.365638916E0,1.223366159E1
5.846335958E0,-1.514941070E0,-9.404041851E0,7.669389313E0,1.222908754E1
5.856271958E0,-1.790874393E0,-9.770088075E0,7.158628010E0,1.224368437E1
5.866206958E0,-1.958789177E0,-9.831997225E0,6.925190789E0,1.218455136E1
5.876141958E0,-1.788015981E0,-9.834458903E0,7.025116196E0,1.221744002E1
5.886077958E0,-1.428505189E0,-9.918728975E0,7.336646490E0,1.241966961E1
5.896012958E0,-1.180415138E0,-1.015662294E1,7.521634852E0,1.269351647E1
5.905948958E0,-1.290518794E0,-1.042325130E1,7.416195520E0,1.285727663E1
5.915883958E0,-1.579468311E0,-1.075142511E1,7.133665076E0,1.299911687E1
5.925819958E0,-1.995334859E0,-1.111426472E1,6.459784582E0,1.300911443E1
5.935754958E0,-2.270965589E0,-1.147988410E1,5.407262961E0,1.289121858E1
5.945689958E0,-2.622132404E0,-1.137271282E1,4.321324502E0,1.244540159E1
5.955625958E0,-2.761639660E0,-1.129567576E1,3.295506529E0,1.208632730E1
5.965560958E0,-2.888717783E0,-1.133046552E1,2.384129677E0,1.193349126E1
5.975496958E0,-3.115636235E0,-1.098202292E1,1.733489526E0,1.154629822E1
5.985431958E0,-3.148066063E0,-1.037663496E1,1.374888561E0,1.093047078E1
5.995367958E0,-2.868668850E0,-9.761358767E0,1.339088398E0,1.026189767E1
6.005302958E0,-2.633000039E0,-9.332639161E0,1.341883952E0,9.789356233E0
6.015238958E0,-2.446255174E0,-9.202840914E0,1.224871227E0,9.600872606E0
6.025173958E0,-2.131492100E0,-9.227039031E0,9.543100333E-1,9.517994300E0
6.035108958E0,-1.903301147E0,-9.173828200E0,4.779777199E-1,9.381372063E0
6.045044958E0,-1.956735342E0,-9.063540941E0,-4.860088706E-2,9.272483467E0
6.054979958E0,-2.081826289E0,-9.002938060E0,-3.025600809E-1,9.245454938E0
6.064915958E0,-2.216479771E0,-9.018099305E0,-1.685518384E-1,9.288019562E0
6.074850958E0,-2.237810999E0,-9.047963959E0,9.489504755E-2,9.321075847E0
6.084786958E0,-2.059243465E0,-9.253259701E0,1.303443772E-1,9.480521525E0
6.094721958E0,-1.958575754E0,-9.599210799E0,-1.572357219E-1,9.798244232E0
6.104656958E0,-1.775102113E0,-9.886225473E0,-9.519419110E-1,1.008933273E1
6.114592958E0,-1.557034298E0,-9.860990059E0,-2.089339668E0,1.019945200E1
6.124527958E0,-1.198927277E0,-9.628122357E0,-3.229474508E0,1.022583358E1
6.134463958E0,-7.765429831E-1,-9.490914518E0,-4.122536126E0,1.037669415E1
6.144398958E0,-4.818858161E-1,-9.251405548E0,-4.647981251E0,1.036457661E1
6.154334958E0,-3.829819541E-1,-8.877260345E0,-4.540925164E0,9.978598487E0
6.164269958E0,-3.646379229E-1,-8.666330811E0,-4.162216501E0,9.620930140E0
6.174205958E0,-4.900969514E-1,-8.613683066E0,-3.776718929E0,9.418032536E0
6.184140958E0,-8.137397531E-1,-8.565454062E0,-3.470932062E0,9.277744610E0
6.194075958E0,-9.779956421E-1,-8.571432840E0,-3.237076765E0,9.214369343E0
6.204011958E0,-6.837693053E-1,-8.596634924E0,-3.334648960E0,9.246056250E0
6.213946958E0,1.919281295E-1,-8.343152863E0,-3.834725647E0,9.184234149E0
6.223882958E0,1.155163353E0,-7.799755910E0,-4.426856804E0,9.042546975E0
6.233817958E0,1.884689021E0,-7.308996177E0,-4.891309329E0,8.994352938E0
6.243753958E0,2.193467470E0,-7.114479192E0,-5.083274589E0,9.014809719E0
6.253688958E0,1.814021473E0,-7.087465056E0,-4.897961122E0,8.804138685E0
6.263623958E0,1.284965693E0,-7.133845171E0,-4.531357657E0,8.548455180E0
6.273559958E0,9.798296213E-1,-6.927637848E0,-4.394974861E0,8.262447353E0
6.283494958E0,7.408936787E-1,-6.591756824E0,-4.418563990E0,7.970187527E0
6.293430958E0,8.444730109E-1,-6.170039259E0,-4.789789679E0,7.856500766E0
6.303365958E0,1.257896885E0,-5.702054431E0,-5.166188107E0,7.796488239E0
6.313301958E0,1.700294298E0,-5.323319748E0,-5.416324975E0,7.782371752E0
6.323236958E0,2.204036019E0,-5.020925728E0,-5.839222509E0,8.010242783E0
6.333171958E0,2.880233765E0,-4.615910150E0,-6.372930626E0,8.379535656E0
6.343107958E0,3.634828640E0,-4.107219930E0,-6.978847178E0,8.876122055E0
6.353042958E0,4.156776252E0,-3.594084072E0,-7.362243846E0,9.186885412E0
6.362978958E0,4.444784367E0,-3.198806446E0,-7.378776848E0,9.188842067E0
6.372913958E0,4.853108885E0,-3.044545203E0,-7.112809812E0,9.133125684E0
6.382849958E0,5.228238174E0,-3.028455420E0,-6.358068173E0,8.771034576E0
6.392784958E0,5.607867481E0,-2.753946771E0,-5.242080873E0,8.155477446E0
6.402720958E0,6.194284154E0,-2.206653233E0,-4.296597211E0,7.854885249E0
6.412655958E0,6.664652308E0,-1.749883657E0,-3.718568954E0,7.829906657E0
6.422590958E0,6.934925233E0,-1.258979790E0,-3.043883298E0,7.677463359E0
6.432526958E0,7.266058903E0,-6.948252207E-1,-2.173245751E0,7.615864439E0
6.442461958E0,7.513313094E0,-1.741870925E-1,-1.427974262E0,7.649792500E0
6.452397958E0,7.933239073E0,1.315506577E-2,-1.179621964E0,8.020471508E0
6.462332958E0,8.324913644E0,1.611942869E-1,-8.967646605E-1,8.374625820E0
6.472268958E0,8.395653259E0,3.700293481E-2,-8.743002427E-1,8.441135218E0
6.482203958E0,7.969057946E0,-4.804417366E-1,-8.152790326E-1,8.025047583E0
6.492138958E0,7.217229974E0,-1.051831358E0,-6.752259386E-1,7.324662980E0
6.502074958E0,6.525061728E0,-1.258780984E0,-5.137270117E-1,6.665198839E0
6.512009958E0,6.297241343E0,-1.292695420E0,-2.332372463E-1,6.432783969E0
6.521945958E0,6.325790958E0,-1.231973109E0,1.733880705E-1,6.446972344E0
6.531880958E0,6.614052842E0,-1.050113738E0,1.015608734E0,6.773469935E0
6.541816958E0,7.044821897E0,-8.445575032E-1,2.099349225E0,7.399328355E0
6.551751958E0,7.398422323E0,-7.244381520E-1,3.108816043E0,8.057679610E0
6.561687958E0,7.474255448E0,-7.812748423E-1,3.889176089E0,8.461712328E0
6.571622958E0,7.229394522E0,-8.532080933E-1,4.533129948E0,8.575626877E0
6.581557958E0,7.254868501E0,-6.813283852E-1,4.965541486E0,8.817818755E0
6.591493958E0,7.001969408E0,-6.106253153E-1,5.298800619E0,8.802143311E0
6.601428958E0,6.218779310E0,-8.793598384E-1,5.701844516E0,8.482777889E0
6.611364958E0,5.494209888E0,-9.016674046E-1,6.095218288E0,8.255363855E0
6.621299958E0,4.676862988E0,-6.615349755E-1,6.554382007E0,8.079022182E0
6.631235958E0,4.081035806E0,-4.941405934E-1,7.074325778E0,8.181999351E0
6.641171458E0,4.019242138E0,-5.759954730E-1,7.452016733E0,8.486379177E0
6.651106458E0,4.030993288E0,-7.433422002E-1,7.644647405E0,8.674220337E0
6.661042458E0,3.824290706E0,-1.116586348E0,7.818651187E0,8.775150760E0
6.670977458E0,3.537236272E0,-1.863962542E0,8.169520379E0,9.095463706E0
6.680913458E0,3.090411055E0,-3.008655286E0,8.838904949E0,9.835084535E0
6.690848458E0,2.228841078E0,-4.395065200E0,9.558225911E0,1.075379064E1
6.700784458E0,1.065967879E0,-5.498259085E0,1.032729147E1,1.174819517E1
6.710719458E0,-4.755423546E-2,-6.432122574E0,1.090405849E1,1.265989549E1
6.720655458E0,-1.018092339E0,-7.316416878E0,1.117422558E1,1.339514036E1
6.730590458E0,-1.818402499E0,-7.779636226E0,1.123929339E1,1.378952659E1
6.740525458E0,-2.247000775E0,-8.148033031E0,1.119674671E1,1.402877727E1
6.750461458E0,-2.600762877E0,-8.585007151E0,1.085948984E1,1.408527014E1
6.760396458E0,-2.980259452E0,-8.728377956E0,1.031761082E1,1.383906143E1
6.770332458E0,-3.121031461E0,-8.912381646E0,9.582080212E0,1.345316488E1
6.780267458E0,-3.237738377E0,-9.466349196E0,8.912807323E0,1.339898695E1
6.790203458E0,-3.409867835E0,-1.001507823E1,8.491549349E0,1.356596480E1
6.800138458E0,-3.452642264E0,-1.040808362E1,8.054849464E0,1.360623178E1
6.810073458E0,-3.460803807E0,-1.050945212E1,7.679114403E0,1.346827921E1
6.820009458E0,-3.451241563E0,-1.047243691E1,7.280713195E0,1.321331857E1
6.829944458E0,-3.216591045E0,-1.046663647E1,6.642980772E0,1.280726866E1
6.839880458E0,-2.956473271E0,-1.037769798E1,5.867210206E0,1.228256916E1
6.849815458E0,-2.638304341E0,-1.044303126E1,5.118231583E0,1.192534470E1
6.859751458E0,-2.652397007E0,-1.041768709E1,4.454450399E0,1.163638872E1
6.869686458E0,-2.788510832E0,-1.043993691E1,3.840919018E0,1.146824897E1
6.879622458E0,-2.999031938E0,-1.038680327E1,3.146211326E0,1.125959681E1
6.889557458E0,-3.294541154E0,-1.011781497E1,2.401817504E0,1.090838707E1
6.899492458E0,-3.360262104E0,-9.751410314E0,1.683726797E0,1.045066029E1
6.909428458E0,-3.135738963E0,-9.443608789E0,9.427687991E-1,9.995169774E0
6.919363458E0,-2.891948662E0,-9.131013717E0,1.402442980E-1,9.579062951E0
6.929299458E0,-2.673170703E0,-8.822795870E0,-5.584856933E-1,9.235771481E0
6.939234458E0,-2.398556073E0,-8.660170185E0,-9.986313432E-1,9.041508913E0
6.949170458E0,-2.211316680E0,-8.728034139E0,-1.363746107E0,9.106497946E0
6.959105458E0,-2.166350715E0,-8.879762369E0,-1.793466171E0,9.314492796E0
6.969040458E0,-2.169374894E0,-9.073991670E0,-2.155915774E0,9.575567089E0
6.978976458E0,-2.348082469E0,-9.355684792E0,-2.446584372E0,9.951286565E0
6.988911458E0,-2.446506019E0,-9.811001043E0,-2.735646155E0,1.047496506E1
6.998847458E0,-2.444464902E0,-1.018798741E1,-2.824142595E0,1.085109568E1
7.008782458E0,-2.380083550E0,-1.047293392E1,-2.819267771E0,1.110384678E1
7.018718458E0,-2.202167103E0,-1.065554013E1,-3.114648641E0,1.131773438E1
7.028653458E0,-2.016283971E0,-1.067838988E1,-3.678454423E0,1.147276943E1
7.038589458E0,-1.935780530E0,-1.052626988E1,-4.281823636E0,1.152751567E1
7.048524458E0,-1.864527529E0,-1.023421550E1,-4.927356244E0,1.151062419E1
7.058459458E0,-2.001810066E0,-9.973069489E0,-5.469340510E0,1.154915773E1
7.068395458E0,-2.216987017E0,-9.895093360E0,-5.825749354E0,1.169475351E1
7.078330458E0,-2.092693047E0,-9.930464337E0,-6.151562058E0,1.186740081E1
7.088266458E0,-1.761199189E0,-9.878192568E0,-6.381078136E0,1.189111724E1
7.098201458E0,-1.235950531E0,-9.842246225E0,-6.388011764E0,1.179847782E1
7.108137458E0,-7.251538512E-1,-9.781713510E0,-6.229086782E0,1.161934978E1
7.118072458E0,-1.853311546E-1,-9.389034387E0,-5.856898642E0,1.106759125E1
7.128008458E0,6.055589953E-1,-8.862449933E0,-5.524896076E0,1.046108011E1
7.137943458E0,1.562274719E0,-8.309391625E0,-5.377926310E0,1.002041830E1
7.147878458E0,2.545539141E0,-7.626006482E0,-5.489137428E0,9.734802211E0
7.157814458E0,3.415675289E0,-6.874531097E0,-5.841766632E0,9.646359566E0
7.167749458E0,3.810180497E0,-6.198114080E0,-6.217961869E0,9.570639654E0
7.177685458E0,3.705152225E0,-5.728586172E0,-6.396829365E0,9.352233876E0
7.187620458E0,3.493809586E0,-5.629978727E0,-6.412034465E0,9.220496292E0
7.197556458E0,3.407951117E0,-5.702165528E0,-6.388148589E0,9.216141542E0
7.207491458E0,3.472325746E0,-5.618636883E0,-6.498160443E0,9.265647072E0
7.217426458E0,3.747320006E0,-5.337973455E0,-6.912245638E0,9.503447142E0
7.227362458E0,4.222318569E0,-5.028161073E0,-7.604575267E0,1.004688722E1
7.237297458E0,4.782470719E0,-4.733204711E0,-8.083585605E0,1.051758571E1
7.247233458E0,5.409542790E0,-4.295379821E0,-8.005384358E0,1.057353393E1
7.257168458E0,6.171073047E0,-3.947607899E0,-7.225223118E0,1.028929540E1
7.267104458E0,6.929219520E0,-3.698491077E0,-5.694873465E0,9.701778352E0
7.277039458E0,7.643892530E0,-3.417539089E0,-3.727332176E0,9.165242582E0
7.286975458E0,8.497771956E0,-3.091521441E0,-1.920895126E0,9.244429194E0
7.296910458E0,9.066317784E0,-2.520245841E0,-2.731778222E-1,9.414052442E0
7.306845458E0,9.386192640E0,-1.838114633E0,9.957539284E-1,9.616174061E0
7.316781458E0,9.723041963E0,-1.319093552E0,1.731036619E0,9.963635912E0
7.326716458E0,1.025077247E1,-8.696620850E-1,1.931165176E0,1.046728462E1
7.336652458E0,1.077490753E1,-6.476343897E-1,1.833852305E0,1.094902173E1
7.346587458E0,1.108983155E1,-7.356339620E-1,1.724060891E0,1.124712883E1
7.356523458E0,1.102869072E1,-1.033124507E0,1.794119890E0,1.122132931E1
7.366458458E0,1.078305153E1,-1.479355793E0,2.066153412E0,1.107843327E1
7.376393458E0,1.046721184E1,-2.019318822E0,2.474864430E0,1.094372542E1
7.386329458E0,9.950066543E0,-2.362379058E0,3.112178192E0,1.068972928E1
7.396264458E0,9.740100045E0,-2.293909624E0,3.810465549E0,1.070753090E1
7.406200458E0,9.658305684E0,-2.130047691E0,4.637692198E0,1.092374298E1
7.416135458E0,9.057910073E0,-2.101254540E0,5.536280020E0,1.082180216E1
7.426071458E0,8.551419575E0,-2.137333322E0,6.192061043E0,1.077202815E1
7.436006458E0,8.105407999E0,-2.258572415E0,6.712717590E0,1.076379885E1
7.445942458E0,7.526392731E0,-2.474258074E0,7.155870463E0,1.067590852E1
7.455877458E0,7.073662119E0,-2.453069519E0,7.231445725E0,1.040903709E1
7.465812458E0,6.856852040E0,-2.135925313E0,6.946881035E0,9.991884355E0
7.475748458E0,6.873046489E0,-1.827510122E0,6.563791931E0,9.677909164E0
7.485683458E0,6.596848580E0,-1.631638046E0,6.203395286E0,9.201237252E0
7.495619458E0,5.862665750E0,-1.746344045E0,6.210459892E0,8.717246084E0
7.505554458E0,4.901817068E0,-1.926668082E0,6.634663693E0,8.471046145E0
7.515490458E0,3.926019979E0,-2.084149095E0,6.959860684E0,8.258145741E0
7.525425458E0,3.073540961E0,-2.205460401E0,6.865771968E0,7.838975337E0
7.535360458E0,2.573351130E0,-2.458776401E0,6.194004657E0,7.143767292E0
7.545296458E0,2.054332973E0,-2.924526131E0,5.309548386E0,6.400346953E0
7.555231458E0,1.546860728E0,-3.911867378E0,4.766860700E0,6.357550269E0
7.565167458E0,8.428849071E-1,-5.469826999E0,4.684790935E0,7.250981207E0
7.575102458E0,-6.892668575E-2,-6.957314222E0,5.342044287E0,8.771910238E0
7.585038458E0,-9.052726516E-1,-7.885930420E0,6.839314486E0,1.047776884E1
7.594973458E0,-1.860542505E0,-8.328875717E0,8.772523264E0,1.223882975E1
7.604909458E0,-2.639918464E0,-8.639190960E0,1.046669260E1,1.382593375E1
7.614844458E0,-3.306846619E0,-9.193289487E0,1.153509117E1,1.511655167E1
7.624779458E0,-4.092160426E0,-9.923315531E0,1.178195477E1,1.593839472E1
7.634714583E0,-4.571117554E0,-1.069673610E1,1.123127101E1,1.616962360E1
7.644649583E0,-4.849357603E0,-1.133197410E1,1.025565256E1,1.603459746E1
7.654585583E0,-5.105621477E0,-1.184796165E1,9.218229032E0,1.585614431E1
7.664520583E0,-5.036419680E0,-1.221264079E1,8.462817886E0,1.568863936E1
7.674456583E0,-4.792924663E0,-1.239287186E1,7.991208369E0,1.550531557E1
7.684391583E0,-4.444989312E0,-1.248465560E1,7.876224042E0,1.541620773E1
7.694327583E0,-4.282564771E0,-1.241856803E1,7.944873862E0,1.535194495E1
7.704262583E0,-4.255051575E0,-1.225365667E1,7.757837806E0,1.511428507E1
7.714197583E0,-4.236466200E0,-1.207141650E1,7.014086593E0,1.458986473E1
7.724133583E0,-4.091991734E0,-1.199074247E1,5.991476988E0,1.401499546E1
7.734068583E0,-4.081365881E0,-1.188467631E1,4.839753844E0,1.346574527E1
7.744004583E0,-4.286068715E0,-1.160676283E1,3.709369529E0,1.291691723E1
7.753939583E0,-4.395161387E0,-1.109717565E1,2.815209219E0,1.226336634E1
7.763875583E0,-4.178113326E0,-1.064094314E1,2.281009936E0,1.165715695E1
7.773810583E0,-3.976193767E0,-1.027331466E1,1.891818677E0,1.117721293E1
7.783745583E0,-3.738828971E0,-9.979006752E0,1.279984158E0,1.073302275E1
7.793681583E0,-3.398270175E0,-9.790390193E0,6.211584896E-1,1.038199490E1
7.803616583E0,-3.081113105E0,-9.558941025E0,9.751810849E-2,1.004371053E1
7.813552583E0,-2.740267795E0,-9.296588738E0,-3.422077113E-1,9.698078978E0
7.823487583E0,-2.474377942E0,-9.000301550E0,-7.139526325E-1,9.361501084E0
7.833423583E0,-2.161804504E0,-8.794265551E0,-1.169682866E0,9.131301293E0
7.843358583E0,-1.827973222E0,-8.704493249E0,-1.763716707E0,9.067545723E0
7.853294583E0,-1.642826693E0,-8.646582425E0,-2.351732594E0,9.110044642E0
7.863229583E0,-1.495420579E0,-8.597199181E0,-2.804127576E0,9.165764994E0
7.873164583E0,-1.442885247E0,-8.643485155E0,-3.043971591E0,9.276719060E0
7.883100583E0,-1.527825117E0,-8.760166928E0,-3.140229625E0,9.430578789E0
7.893035583E0,-1.669801945E0,-8.947922192E0,-3.182899681E0,9.642841929E0
7.902971583E0,-1.788346788E0,-9.202997620E0,-3.330460015E0,9.949136311E0
7.912906583E0,-1.949284528E0,-9.231706279E0,-3.564977801E0,1.008628662E1
7.922842583E0,-1.934342699E0,-9.110978817E0,-4.051112972E0,1.015692537E1
7.932777583E0,-1.686473673E0,-9.039255116E0,-4.643266933E0,1.030108025E1
7.942713583E0,-1.542328843E0,-9.041924955E0,-5.267005214E0,1.057717018E1
7.952648583E0,-1.458428023E0,-9.118083184E0,-5.787457108E0,1.089775725E1
7.962583583E0,-1.054742467E0,-9.098889699E0,-6.259050254E0,1.109405181E1
7.972519583E0,-7.015873794E-1,-8.863463255E0,-6.562030165E0,1.105049527E1
7.982454583E0,-5.693789099E-1,-8.621089150E0,-6.551860687E0,1.084316600E1
7.992390583E0,-3.604133096E-1,-8.588675694E0,-6.290860276E0,1.065223784E1
8.002325583E0,3.992098778E-2,-8.645069751E0,-5.840511235E0,1.043313932E1
8.012261583E0,7.223159051E-1,-8.521035104E0,-5.440664011E0,1.013561071E1
8.022196583E0,1.429807949E0,-8.093488449E0,-5.393409737E0,9.830451396E0
8.032131583E0,2.078606812E0,-7.630925159E0,-5.908938861E0,9.872546963E0
8.042067583E0,2.251358120E0,-7.243261194E0,-6.555062622E0,1.002508315E1
8.052002583E0,2.063540584E0,-6.903312846E0,-6.956376328E0,1.001524336E1
8.061938583E0,1.701805218E0,-6.612698042E0,-7.108967607E0,9.857045036E0
8.071873583E0,1.504469292E0,-6.439594147E0,-7.204626886E0,9.779491254E0
8.081809583E0,1.751473807E0,-6.323190701E0,-7.289296907E0,9.807356960E0
8.091744583E0,2.276712232E0,-6.244307084E0,-7.561336277E0,1.006720397E1
8.101680583E0,2.590657427E0,-6.135264114E0,-7.947228536E0,1.036877105E1
8.111615583E0,2.700802597E0,-5.973734781E0,-8.227328292E0,1.051992266E1
8.121550583E0,2.654148833E0,-5.589782043E0,-8.036549433E0,1.014279528E1
8.131486583E0,2.739457955E0,-5.211004676E0,-7.448426542E0,9.494116998E0
8.141421583E0,3.526624745E0,-5.047211301E0,-6.593583494E0,9.021461484E0
8.151357583E0,4.656247167E0,-4.732264771E0,-5.450906578E0,8.589956349E0
8.161292583E0,5.897421016E0,-4.311159410E0,-4.299733073E0,8.476636986E0
8.171228583E0,7.271949388E0,-4.011593395E0,-3.549155821E0,9.031646390E0
8.181163583E0,8.255015443E0,-3.798824328E0,-2.784128344E0,9.504089481E0
8.191098583E0,8.833296300E0,-3.231142426E0,-1.573634251E0,9.536442191E0
8.201034583E0,9.386968566E0,-2.588040798E0,-2.593403864E-1,9.740656624E0
8.210969583E0,9.876952958E0,-2.390243964E0,6.396497244E-1,1.018217156E1
8.220905583E0,1.008630433E1,-2.538997276E0,1.293201789E0,1.048105019E1
8.230840583E0,9.983615527E0,-2.501351733E0,1.930429596E0,1.047167121E1
8.240776583E0,9.997238370E0,-2.408359223E0,2.444181751E0,1.056972060E1
8.250711583E0,1.007324633E1,-2.516124138E0,2.800404654E0,1.075376392E1
8.260647583E0,1.023411375E1,-2.498779542E0,3.242336628E0,1.102241944E1
8.270582583E0,1.042762736E1,-2.295992695E0,3.819104810E0,1.133986580E1
8.280517583E0,1.042764607E1,-2.069538950E0,4.563709132E0,1.156919336E1
8.290453583E0,1.021184171E1,-1.811478811E0,5.486363509E0,1.173300265E1
8.300388583E0,9.952718840E0,-1.552617312E0,6.295960218E0,1.187881930E1
8.310324583E0,9.544131782E0,-1.312576538E0,6.869496644E0,1.183229871E1
8.320259583E0,9.252762687E0,-1.059955772E0,6.991183634E0,1.164533264E1
8.330195583E0,8.967857689E0,-9.115744883E-1,6.644397553E0,1.119827926E1
8.340130583E0,8.461030977E0,-8.391090676E-1,6.153731375E0,1.049578768E1
8.350066583E0,8.024073814E0,-8.361898452E-1,5.794345129E0,9.932744308E0
8.360001583E0,7.772624829E0,-1.049369388E0,5.882077922E0,9.803760173E0
8.369936583E0,7.393142288E0,-1.149131073E0,6.438231161E0,9.870657303E0
8.379872583E0,6.951154180E0,-1.226235090E0,7.244446424E0,1.011455392E1
8.389807583E0,6.389658925E0,-1.440445204E0,8.176030669E0,1.047616824E1
8.399743583E0,5.424805192E0,-1.605672608E0,8.930928429E0,1.057204703E1
8.409678583E0,4.059851928E0,-1.917380365E0,9.298866813E0,1.032606746E1
8.419614583E0,2.705224847E0,-2.387512583E0,9.241333719E0,9.920721079E0
8.429549583E0,1.445889546E0,-2.853488893E0,8.757959604E0,9.323886093E0
8.439485583E0,4.070056781E-1,-3.560763128E0,8.132605737E0,8.887292263E0
8.449420583E0,-5.215441543E-1,-4.336192217E0,7.678250769E0,8.833465125E0
8.459355583E0,-9.764230335E-1,-5.335610011E0,7.411612473E0,9.184450749E0
8.469291583E0,-1.207492717E0,-6.391351109E0,7.350324297E0,9.815022921E0
8.479226583E0,-1.622443299E0,-7.051577770E0,7.605236002E0,1.049746093E1
8.489162583E0,-2.082378851E0,-7.518030043E0,8.181406599E0,1.130453411E1
8.499097583E0,-2.605042747E0,-8.115291547E0,8.823448420E0,1.226774008E1
8.509033583E0,-3.419620113E0,-8.531189963E0,9.404666918E0,1.315001003E1
8.518968583E0,-4.117854261E0,-8.767806900E0,9.794393197E0,1.377538746E1
8.528903583E0,-4.616049314E0,-9.169921675E0,9.818328774E0,1.420545510E1
8.538839583E0,-5.079725329E0,-9.354914714E0,9.633212943E0,1.435676949E1
8.548774583E0,-5.056742263E0,-9.382321783E0,9.310111009E0,1.415191759E1
8.558710583E0,-4.488101710E0,-9.484556841E0,8.670028006E0,1.361136514E1
8.568645583E0,-4.026653484E0,-9.586639286E0,7.670714877E0,1.292120187E1
8.578581583E0,-3.822955787E0,-9.993220164E0,6.397998224E0,1.246650799E1
8.588516583E0,-3.918006955E0,-1.043017674E1,5.207016875E0,1.229847105E1
8.598452583E0,-4.243931632E0,-1.051983444E1,4.399119952E0,1.216676328E1
8.608387583E0,-4.486948347E0,-1.042336824E1,3.918643132E0,1.200562681E1
8.618322583E0,-4.683674117E0,-1.020114832E1,3.674348801E0,1.181105708E1
8.628258583E0,-4.914231584E0,-9.824982905E0,3.420486086E0,1.150563715E1
8.638193750E0,-5.047447529E0,-9.383795282E0,3.019241962E0,1.107466309E1
8.648129750E0,-4.810335333E0,-9.014997357E0,2.503220503E0,1.052024792E1
8.658064750E0,-4.458146132E0,-8.653160543E0,2.032969878E0,9.944104828E0
8.668000750E0,-3.967979599E0,-8.399329988E0,1.512525001E0,9.411765946E0
8.677935750E0,-3.190187650E0,-8.339740428E0,1.065850350E0,8.992474889E0
8.687871750E0,-2.541123616E0,-8.449444134E0,7.416871458E-1,8.854406543E0
8.697806750E0,-2.313067149E0,-8.411578735E0,3.821523803E-1,8.732180535E0
8.707741750E0,-2.134412638E0,-8.193518522E0,7.723587155E-2,8.467315304E0
8.717677750E0,-1.915841086E0,-8.070674953E0,-1.179219675E-1,8.295790912E0
8.727612750E0,-1.925811612E0,-8.038207119E0,-2.154862690E-1,8.268491905E0
8.737548750E0,-1.977511084E0,-7.901872269E0,-2.362918317E-1,8.148985782E0
8.747483750E0,-2.004342788E0,-7.763684437E0,-4.081181109E-2,8.018344695E0
8.757419750E0,-2.056042260E0,-7.815649227E0,2.159809434E-1,8.084449912E0
8.767354750E0,-2.139828475E0,-8.198870478E0,1.465084201E-1,8.474774790E0
8.777290750E0,-2.103743115E0,-8.680962884E0,-2.507566738E-1,8.935755737E0
8.787225750E0,-2.093419417E0,-8.938490049E0,-9.757687300E-1,9.232070939E0
8.797160750E0,-1.994450030E0,-9.020440530E0,-2.019972687E0,9.456556875E0
8.807096750E0,-1.793842586E0,-9.015271007E0,-3.097911571E0,9.700001992E0
8.817031750E0,-1.608957866E0,-9.096532686E0,-3.916500712E0,1.003367481E1
8.826967750E0,-1.460975947E0,-9.156136279E0,-4.390783869E0,1.025905772E1
8.836902750E0,-1.301334827E0,-9.077336277E0,-4.562221308E0,1.024233223E1
8.846838750E0,-1.161388372E0,-8.932421808E0,-4.535560051E0,1.008505267E1
8.856773750E0,-1.179956205E0,-8.762297654E0,-4.515038956E0,9.927524041E0
8.866709750E0,-1.034827801E0,-8.658044137E0,-4.447871989E0,9.788573037E0
8.876644750E0,-8.024017096E-1,-8.586918021E0,-4.437031836E0,9.698776270E0
8.886579750E0,-5.710841042E-1,-8.587388138E0,-4.613171899E0,9.764769687E0
8.896515750E0,-4.259423245E-1,-8.586421008E0,-4.902921900E0,9.896802299E0
8.906450750E0,-4.246445350E-1,-8.459724124E0,-5.148866315E0,9.912521353E0
8.916386750E0,-2.357344459E-1,-8.284050377E0,-5.336598190E0,9.856994553E0
8.926321750E0,1.955001935E-1,-8.207734272E0,-5.491121389E0,9.877121864E0
8.936257750E0,5.888125697E-1,-8.047949165E0,-5.613256860E0,9.829793414E0
8.946192750E0,8.202918506E-1,-7.788214676E0,-5.700790848E0,9.686494869E0
8.956127750E0,9.739198405E-1,-7.527458094E0,-5.792725450E0,9.548131406E0
8.966063750E0,1.124586800E0,-7.355162283E0,-6.015441216E0,9.568105388E0
8.975998750E0,1.007776096E0,-7.148919293E0,-6.165655602E0,9.494101785E0
8.985934750E0,1.028136101E0,-6.796138061E0,-6.201249357E0,9.257432148E0
8.995869750E0,1.491338492E0,-6.496830202E0,-6.337619875E0,9.197734441E0
9.005805750E0,2.170106966E0,-6.088502761E0,-6.616867692E0,9.249982063E0
9.015740750E0,3.072810059E0,-5.514683914E0,-7.121279504E0,9.516644477E0
9.025675750E0,3.905350657E0,-5.100267182E0,-7.564592006E0,9.924088940E0
9.035611750E0,4.473826318E0,-4.730578142E0,-7.704997103E0,1.008763956E1
9.045546750E0,4.655221565E0,-4.466886842E0,-7.617320443E0,9.982371292E0
9.055482750E0,4.722853385E0,-4.250829885E0,-7.205025081E0,9.606627151E0
9.065417750E0,5.132212860E0,-4.002833974E0,-6.490671914E0,9.191904621E0
9.075353750E0,5.842563608E0,-3.758241727E0,-5.729457992E0,9.004810896E0
9.085288750E0,6.699404649E0,-3.644509582E0,-4.991327707E0,9.114703782E0
9.095224750E0,7.667726950E0,-3.425119420E0,-4.296475589E0,9.433195753E0
9.105159750E0,8.618156186E0,-2.998735777E0,-3.837422968E0,9.899032647E0
9.115094750E0,9.366779299E0,-2.634329403E0,-3.892362821E0,1.047982510E1
9.125030750E0,9.895005652E0,-2.397624758E0,-3.765706283E0,1.085542653E1
9.134965750E0,1.019569872E1,-2.263101376E0,-3.024820206E0,1.087306017E1
9.144901750E0,1.046888765E1,-2.203592362E0,-1.688591096E0,1.083073256E1
9.154836750E0,1.103186927E1,-2.301217621E0,-1.635834593E-1,1.127051470E1
9.164772750E0,1.157982120E1,-2.454886833E0,1.365316669E0,1.191565433E1
9.174707750E0,1.194058505E1,-2.546586085E0,2.767981843E0,1.251896144E1
9.184643750E0,1.195952535E1,-2.535824870E0,4.062115678E0,1.288260215E1
9.194578750E0,1.152042051E1,-2.259296008E0,5.468748772E0,1.295112814E1
9.204513750E0,1.122412104E1,-1.909300683E0,7.010726198E0,1.337073685E1
9.214449750E0,1.097567752E1,-1.868972144E0,8.634559965E0,1.408950602E1
9.224384750E0,1.054738652E1,-2.310572289E0,9.978378761E0,1.470218179E1
9.234320750E0,9.844606161E0,-2.626394439E0,1.105864951E1,1.503688622E1
9.244255750E0,9.334539506E0,-2.551102767E0,1.167627219E1,1.516499540E1
9.254191750E0,8.807585508E0,-2.337338211E0,1.169036866E1,1.482232882E1
9.264126750E0,7.886380656E0,-2.036901838E0,1.115134425E1,1.380928845E1
9.274062750E0,6.766304398E0,-1.800766420E0,1.045993439E1,1.258713082E1
9.283997750E0,5.873621678E0,-1.810541210E0,9.976343930E0,1.171771860E1
9.293932750E0,5.101179932E0,-1.792651946E0,9.647762570E0,1.105960941E1
9.303868750E0,4.348398280E0,-1.808097074E0,9.207950796E0,1.034234695E1
9.313803750E0,3.725902824E0,-2.169236900E0,8.534874294E0,9.562009192E0
9.323739750E0,3.362577601E0,-2.989534306E0,7.796405455E0,9.001565504E0
9.333674750E0,2.898235588E0,-4.022863611E0,7.330684084E0,8.849979113E0
9.343610750E0,2.025638055E0,-5.080865536E0,7.301747968E0,9.123262986E0
9.353545750E0,8.922471017E-1,-5.943182495E0,7.626763111E0,9.710048332E0
9.363481750E0,-3.268920994E-1,-6.584402196E0,8.462482256E0,1.072729307E1
9.373416750E0,-1.486748720E0,-6.934189653E0,9.655620058E0,1.198016722E1
9.383351750E0,-2.488334661E0,-6.955136719E0,1.087476628E1,1.314634085E1
9.393287750E0,-3.088463055E0,-7.067063536E0,1.172279264E1,1.403231479E1
9.403222750E0,-3.017652104E0,-7.459138641E0,1.203971874E1,1.448101519E1
9.413158750E0,-2.671505708E0,-7.864190472E0,1.201081947E1,1.460281544E1
9.423093750E0,-2.162270527E0,-8.382260211E0,1.150379219E1,1.439704605E1
9.433029750E0,-1.684617913E0,-8.986392778E0,1.057623434E1,1.398034068E1
9.442964750E0,-1.471100986E0,-9.430468342E0,9.424366187E0,1.341329748E1
9.452900750E0,-1.237335151E0,-9.867770491E0,8.273140642E0,1.293633444E1
9.462835750E0,-1.247025157E0,-1.045122087E1,7.231084367E0,1.276995186E1
9.472770750E0,-1.725920890E0,-1.116117693E1,6.069801611E0,1.282158980E1
9.482706750E0,-2.635713439E0,-1.177143680E1,4.879093326E0,1.301227349E1
9.492641750E0,-3.647647491E0,-1.209178235E1,3.941244959E0,1.323064415E1
9.502577750E0,-4.607984541E0,-1.208734782E1,3.233862258E0,1.333399280E1
9.512512750E0,-5.466756041E0,-1.188189655E1,2.855576642E0,1.338727773E1
9.522448750E0,-6.161894088E0,-1.152301433E1,2.876095691E0,1.337986265E1
9.532383750E0,-6.579876451E0,-1.117415541E1,2.808649812E0,1.326819645E1
9.542318750E0,-6.666751458E0,-1.076438956E1,2.505585701E0,1.290719246E1
9.552254750E0,-6.423948752E0,-1.025832707E1,2.006494855E0,1.226892063E1
9.562189750E0,-6.042751222E0,-9.793292751E0,1.439017314E0,1.159716328E1
9.572125750E0,-5.743767883E0,-9.387901781E0,8.818513370E-1,1.104088905E1
9.582060750E0,-5.355676485E0,-9.113208945E0,4.175122476E-1,1.057866553E1
9.591996750E0,-4.935239460E0,-9.021892979E0,6.447081506E-2,1.028373949E1
9.601931750E0,-4.455579204E0,-9.005209118E0,-3.289503193E-1,1.005257109E1
9.611867750E0,-4.064602206E0,-8.859083106E0,-8.753357846E-1,9.786243268E0
9.621802750E0,-3.610450720E0,-8.563871806E0,-1.286192147E0,9.382406138E0
9.631737750E0,-3.291138951E0,-8.276036183E0,-1.260819324E0,8.995222947E0
9.641674750E0,-3.040096056E0,-8.195384953E0,-1.152095026E0,8.816679733E0
9.651609750E0,-2.755864073E0,-8.328091605E0,-1.281133136E0,8.865280519E0
9.661545750E0,-2.573287103E0,-8.462440740E0,-1.618732656E0,8.991941126E0
9.671480750E0,-2.587758377E0,-8.499930748E0,-2.131645736E0,9.137244097E0
9.681416750E0,-2.644136353E0,-8.331996376E0,-2.810086766E0,9.182059044E0
9.691351750E0,-2.574795100E0,-8.036002133E0,-3.424203746E0,9.106704749E0
9.701287750E0,-2.479350414E0,-7.805953959E0,-3.723731753E0,8.997014719E0
9.711222750E0,-2.211440787E0,-7.870745786E0,-3.853660101E0,9.038241298E0
9.721157750E0,-1.886463066E0,-8.044781143E0,-3.926411450E0,9.148439944E0
9.731093750E0,-1.380463589E0,-8.127226884E0,-4.037870198E0,9.179427666E0
9.741028750E0,-6.791918857E-1,-8.157850506E0,-4.328114288E0,9.259827201E0
9.750964750E0,-2.493508570E-2,-8.060065180E0,-4.632641080E0,9.296592701E0
9.760899750E0,2.200087979E-1,-7.951382398E0,-4.709941271E0,9.244264854E0
9.770835750E0,2.467247263E-2,-8.013858143E0,-4.657637343E0,9.269094707E0
9.780770750E0,-2.251958629E-1,-8.154304755E0,-4.444821497E0,9.289770576E0
9.790706750E0,-1.965294497E-1,-8.119627258E0,-4.170393248E0,9.130123245E0
9.800641750E0,1.179675758E-2,-8.100002832E0,-4.038808091E0,9.051085893E0
9.810576750E0,1.619827840E-1,-8.227879685E0,-4.114291260E0,9.200632321E0
9.820512750E0,3.346732816E-1,-8.311077377E0,-4.272425114E0,9.350915984E0
9.830447750E0,6.754685980E-1,-8.159822772E0,-4.702541327E0,9.442079243E0
9.840383750E0,1.071223356E0,-7.846299747E0,-5.331821015E0,9.546740518E0
9.850318750E0,1.180720655E0,-7.500153936E0,-5.881551087E0,9.604116488E0
9.860254750E0,1.024236008E0,-7.260993460E0,-6.096636822E0,9.536250100E0
9.870189750E0,9.892079705E-1,-7.087032362E0,-6.073746142E0,9.385891131E0
9.880125750E0,9.741168916E-1,-7.093019911E0,-5.897720978E0,9.275933802E0
9.890060750E0,9.936413294E-1,-7.072202069E0,-5.750388100E0,9.168987321E0
9.899995750E0,1.282424785E0,-6.888279070E0,-5.815735413E0,9.105810248E0
9.909931750E0,1.369516724E0,-6.608904954E0,-6.264571195E0,9.208585830E0
9.919866750E0,1.240722443E0,-6.559249229E0,-6.571172871E0,9.367147673E0
9.929802750E0,1.646669483E0,-6.570216851E0,-6.419418329E0,9.332105954E0
9.939737750E0,2.654244143E0,-6.368596085E0,-5.972838403E0,9.125723349E0
9.949673750E0,4.153291896E0,-5.764690390E0,-5.465552684E0,8.964025603E0
9.959608750E0,5.785205930E0,-4.844778649E0,-4.852737586E0,8.971596842E0
9.969544750E0,7.286640517E0,-3.662070817E0,-4.049303843E0,9.105094965E0
9.979479750E0,8.177865525E0,-2.463213269E0,-3.384971852E0,9.187107194E0
9.989414750E0,8.470239172E0,-1.591149586E0,-2.714351181E0,9.035729687E0
9.999350750E0,8.175627211E0,-1.245099669E0,-2.214541712E0,8.561270261E0
1.000928575E1,8.157660472E0,-1.616302553E0,-2.267711028E0,8.619882344E0
1.001922175E1,8.299826165E0,-1.834633054E0,-1.980761844E0,8.727909847E0
1.002915675E1,8.659506526E0,-2.024377833E0,-1.639111372E0,9.042778609E0
1.003909275E1,8.987720681E0,-2.141329017E0,-1.364232010E0,9.339461546E0
1.004902775E1,9.470483177E0,-2.143333443E0,-1.369973391E0,9.806159133E0
1.005896375E1,1.016055812E1,-1.931665405E0,-1.318446558E0,1.042624448E1
1.006889875E1,1.087220987E1,-1.558621233E0,-7.063781494E-1,1.100605369E1
1.007883375E1,1.152110931E1,-1.353085463E0,6.183453941E-1,1.161676164E1
1.008876975E1,1.184922348E1,-1.280152996E0,2.611662380E0,1.220097000E1
1.009870475E1,1.164083573E1,-1.382523563E0,4.664901631E0,1.261672442E1
1.010864075E1,1.110325792E1,-1.707692049E0,6.217176003E0,1.283946362E1
1.011857575E1,1.034382506E1,-2.300990164E0,6.941061301E0,1.266758085E1
1.012851175E1,9.233063418E0,-2.723036635E0,7.131356011E0,1.198000948E1
1.013844675E1,8.465246819E0,-2.729913545E0,7.005931481E0,1.132236316E1
1.014838275E1,8.267596897E0,-2.466423682E0,6.818838707E0,1.099695256E1
1.015831775E1,7.722880812E0,-2.222263252E0,6.808896686E0,1.053292059E1
1.016825275E1,7.015557168E0,-2.049507558E0,7.167335683E0,1.023666080E1
1.017818875E1,6.523915089E0,-1.836167802E0,8.071509351E0,1.053955613E1
1.018812375E1,5.948992288E0,-1.788119769E0,9.110159038E0,1.102646268E1
1.019805975E1,5.233693042E0,-1.966022475E0,9.863420162E0,1.133771778E1
1.020799475E1,4.398129433E0,-2.348043293E0,1.024507962E1,1.139379245E1
1.021793075E1,3.532644745E0,-2.778555948E0,1.028372738E1,1.122296756E1
1.022786575E1,2.543635580E0,-3.475135041E0,1.007954261E1,1.096101385E1
1.023780175E1,1.602605451E0,-4.252608023E0,9.740673657E0,1.074866236E1
1.024773675E1,8.370055318E-1,-4.890129361E0,9.348671057E0,1.058355299E1
1.025767175E1,1.913852155E-2,-5.381494281E0,9.088328458E0,1.056212863E1
1.026760775E1,-5.393869328E-1,-5.890160528E0,9.252368585E0,1.098140491E1
1.027754275E1,-1.014029986E0,-6.295734515E0,9.808737586E0,1.169939584E1
1.028747875E1,-1.483974801E0,-6.564705266E0,1.044873580E1,1.242874154E1
1.029741375E1,-1.838074579E0,-6.949556721E0,1.089274062E1,1.305092544E1
1.030734975E1,-2.434050865E0,-7.466718972E0,1.094617481E1,1.347201688E1
1.031728475E1,-2.972968267E0,-8.173389482E0,1.045212251E1,1.359741523E1
1.032722075E1,-3.327320645E0,-9.128022866E0,9.577883080E0,1.364286291E1
1.033715575E1,-3.525207379E0,-9.799608328E0,8.648583927E0,1.353726023E1
1.034709075E1,-3.453531041E0,-1.018767049E1,8.134255237E0,1.348634921E1
1.035702675E1,-3.709970039E0,-1.047597915E1,8.244074718E0,1.383744141E1
1.036696175E1,-4.062995684E0,-1.066942960E1,8.533462776E0,1.425358372E1
1.037689775E1,-4.332813696E0,-1.077925552E1,8.434823756E0,1.435659694E1
1.038683275E1,-4.502360145E0,-1.080351561E1,7.813265902E0,1.407246675E1
1.039676875E1,-4.581034432E0,-1.072544242E1,6.903044459E0,1.355260176E1
1.040670375E1,-4.567932868E0,-1.060542130E1,6.068221693E0,1.304470338E1
1.041663975E1,-4.545480730E0,-1.038665475E1,5.451624032E0,1.258030987E1
1.042657475E1,-4.675504972E0,-1.008437358E1,4.971951204E0,1.217683193E1
1.043650975E1,-4.784144192E0,-9.754387717E0,4.491834573E0,1.175638946E1
1.044644575E1,-4.909890611E0,-9.481933780E0,3.932351929E0,1.137881741E1
1.045638075E1,-4.825431089E0,-9.310093467E0,3.261524851E0,1.098181087E1
1.046631675E1,-4.600503321E0,-9.174119391E0,2.587708676E0,1.058420208E1
1.047625175E1,-4.412515046E0,-9.006629992E0,1.928743844E0,1.021321329E1
1.048618775E1,-4.214861323E0,-8.735038519E0,1.305696704E0,9.786255555E0
1.049612275E1,-3.781877927E0,-8.396564255E0,8.221226138E-1,9.245581514E0
1.050605775E1,-3.123888703E0,-8.133376400E0,4.124567449E-1,8.722420127E0
1.051599375E1,-2.433374342E0,-8.060686739E0,-1.154953730E-1,8.420767220E0
1.052592875E1,-1.914023479E0,-8.086260706E0,-7.672014713E-1,8.345040215E0
1.053586475E1,-1.751266377E0,-8.095798684E0,-1.293051515E0,8.383368803E0
1.054579975E1,-1.934478939E0,-8.068098670E0,-1.402226633E0,8.414431914E0
1.055573575E1,-2.365981089E0,-8.137386421E0,-1.277023128E0,8.570047395E0
1.056567075E1,-2.878981584E0,-8.386585981E0,-1.013057009E0,8.924664917E0
1.057560675E1,-3.377551443E0,-8.769035985E0,-7.414497489E-1,9.426218414E0
1.058554175E1,-3.859340963E0,-9.104169735E0,-7.723815197E-1,9.918517653E0
1.059547675E1,-3.965863491E0,-9.477228525E0,-1.327018576E0,1.035890496E1
1.060541275E1,-3.763265947E0,-9.743648720E0,-2.317820790E0,1.069921278E1
1.061534775E1,-3.224585943E0,-9.881875144E0,-3.475885823E0,1.096043763E1
1.062528375E1,-2.340480504E0,-9.742345961E0,-4.500592532E0,1.098391947E1
1.063521875E1,-1.517970513E0,-9.445709109E0,-5.254712613E0,1.091501991E1
1.064515371E1,-9.370930530E-1,-9.139240749E0,-5.646564939E0,1.078367101E1
1.065508871E1,-6.347292924E-1,-8.866863996E0,-5.654844012E0,1.053572110E1
1.066502471E1,-5.453968473E-1,-8.630949894E0,-5.210578998E0,1.009657800E1
1.067495971E1,-5.462778765E-1,-8.489306942E0,-4.502724427E0,9.625033981E0
1.068489471E1,-5.082503633E-1,-8.520604164E0,-3.645726973E0,9.281720687E0
1.069483071E1,-3.557536635E-1,-8.600568931E0,-3.131068499E0,9.159690855E0
1.070476571E1,1.908385009E-2,-8.566169177E0,-3.275672774E0,9.171131374E0
1.071470171E1,2.477427265E-1,-8.372268489E0,-3.973191807E0,9.270518283E0
1.072463671E1,4.441387135E-1,-8.232041733E0,-4.797997415E0,9.538582153E0
1.073457271E1,6.290118849E-1,-8.082942411E0,-5.541018019E0,9.820004820E0
1.074450771E1,7.499951622E-1,-7.695398313E0,-6.014669384E0,9.795810112E0
1.075444371E1,9.621964654E-1,-7.258086809E0,-6.151296594E0,9.562640637E0
1.076437871E1,1.129021329E0,-6.843273051E0,-6.134730847E0,9.259589504E0
1.077431371E1,1.157392019E0,-6.509974743E0,-6.232585171E0,9.086497969E0
1.078424971E1,1.406707939E0,-6.206078573E0,-6.390689204E0,9.018600057E0
1.079418471E1,1.772216220E0,-5.843164701E0,-6.567177469E0,8.967226102E0
1.080412071E1,2.183624559E0,-5.391258547E0,-6.648757821E0,8.834017517E0
1.081405571E1,2.834766986E0,-5.019670331E0,-6.639652537E0,8.793064307E0
1.082399171E1,3.627641827E0,-4.752918014E0,-6.609519496E0,8.912674281E0
1.083392671E1,4.552498850E0,-4.434711369E0,-6.658309248E0,9.204618012E0
1.084386271E1,5.413984335E0,-4.058432516E0,-6.690034486E0,9.515180623E0
1.085379771E1,6.034324214E0,-3.537297083E0,-6.493032435E0,9.543846687E0
1.086373271E1,6.535291432E0,-2.858168712E0,-5.949895098E0,9.288725110E0
1.087366871E1,6.924282716E0,-2.146702608E0,-5.096418545E0,8.861574646E0
1.088360371E1,7.013499532E0,-1.537266909E0,-3.907716440E0,8.174509956E0
1.089353971E1,7.041712348E0,-1.188949734E0,-2.960937036E0,7.730877207E0
1.090347471E1,7.144734440E0,-1.301747787E0,-2.350102975E0,7.633135759E0
1.091341071E1,7.335562416E0,-1.565998372E0,-1.957218615E0,7.752001778E0
1.092334571E1,7.845115101E0,-1.592857411E0,-1.841750139E0,8.214320985E0
1.093328171E1,8.647457169E0,-1.429695244E0,-2.036668242E0,8.998364379E0
1.094321671E1,9.306975732E0,-1.090221545E0,-2.135266331E0,9.610813836E0
1.095315171E1,9.632286744E0,-6.326704878E-1,-1.810689729E0,9.821395887E0
1.096308771E1,9.931447839E0,-4.042531013E-1,-1.007858834E0,9.990638427E0
1.097302271E1,1.002643586E1,-4.217144953E-1,1.800556505E-1,1.003691582E1
1.098295871E1,9.950975200E0,-6.005588219E-1,1.440682016E0,1.007264330E1
1.099289371E1,9.866732025E0,-9.651256281E-1,2.521087840E0,1.022935737E1
1.100282971E1,9.552228422E0,-1.250501765E0,3.460167630E0,1.023628754E1
1.101276471E1,9.602387592E0,-1.343806955E0,4.236826388E0,1.058122689E1
1.102270071E1,9.925351532E0,-1.346718722E0,5.085692997E0,1.123345573E1
1.103263571E1,9.885791609E0,-1.192301066E0,5.961234604E0,1.160546318E1
1.104257071E1,9.748742815E0,-1.027855727E0,6.571498561E0,1.180165527E1
1.105250671E1,9.749401796E0,-8.756041718E-1,6.900675752E0,1.197651218E1
1.106244171E1,9.676701025E0,-7.965273044E-1,6.904322661E0,1.191396953E1
1.107237771E1,9.261306639E0,-8.577564231E-1,6.805623415E0,1.152493196E1
1.108231271E1,8.734093024E0,-1.067119780E0,6.671498812E0,1.104228337E1
1.109224871E1,8.271705151E0,-1.485674879E0,6.193821055E0,1.043991165E1
1.110218371E1,7.848107121E0,-2.142106697E0,5.463214967E0,9.799394076E0
1.111211971E1,7.094502765E0,-2.999966323E0,4.702616172E0,9.024764057E0
1.112205471E1,5.928801268E0,-3.880560801E0,4.355965161E0,8.317684118E0
1.113198971E1,4.549448943E0,-4.514172691E0,4.644676697E0,7.915065532E0
1.114192571E1,3.239562124E0,-5.211589982E0,5.293532862E0,8.104130000E0
1.115186071E1,1.837369697E0,-6.169704798E0,5.964336551E0,8.775790289E0
1.116179671E1,2.429921561E-1,-7.059550449E0,6.611467203E0,9.675112212E0
1.117173171E1,-1.112692394E0,-7.751740914E0,7.244492033E0,1.066818805E1
1.118166771E1,-2.123623940E0,-8.201750817E0,8.003438990E0,1.165476429E1
1.119160271E1,-2.879996953E0,-8.396782941E0,8.849744518E0,1.253468485E1
1.120153871E1,-3.238998452E0,-8.676859308E0,9.408207407E0,1.320202125E1
1.121147371E1,-3.653680648E0,-9.041869406E0,9.480601199E0,1.360097731E1
1.122140871E1,-4.331068302E0,-9.204155953E0,9.371347144E0,1.383100816E1
1.123134471E1,-4.563617916E0,-9.664125418E0,9.210876743E0,1.410893968E1
1.124127971E1,-4.659881212E0,-1.027593889E1,9.180780539E0,1.454634470E1
1.125121571E1,-4.952995116E0,-1.042877575E1,9.229272083E0,1.478076410E1
1.126115071E1,-5.004176964E0,-1.051519877E1,9.266220054E0,1.488200344E1
1.127108671E1,-4.926037112E0,-1.062761149E1,9.343867570E0,1.498398574E1
1.128102171E1,-4.852403126E0,-1.098759298E1,9.363475623E0,1.522982900E1
1.129095771E1,-4.799740763E0,-1.133069941E1,9.294386677E0,1.542102085E1
1.130089271E1,-4.738902238E0,-1.135388596E1,9.171985742E0,1.534578910E1
1.131082871E1,-4.678913606E0,-1.131812672E1,8.826386061E0,1.509626828E1
1.132076371E1,-4.478792066E0,-1.129051033E1,8.105391042E0,1.460248492E1
1.133069871E1,-4.223439773E0,-1.115554372E1,7.109114957E0,1.388607629E1
1.134063471E1,-4.086587445E0,-1.083746104E1,6.250494023E0,1.316128543E1
1.135056971E1,-3.933405012E0,-1.041394721E1,5.591474812E0,1.245738986E1
1.136050571E1,-3.928886869E0,-1.002716559E1,4.971716731E0,1.186162590E1
1.137044071E1,-3.847937431E0,-9.633619325E0,4.287890707E0,1.122493877E1
1.138037671E1,-3.590621935E0,-9.310675850E0,3.450409212E0,1.055872030E1
1.139031171E1,-3.219795612E0,-8.930695125E0,2.599269791E0,9.842794453E0
1.140024771E1,-2.838949791E0,-8.481343619E0,1.933115222E0,9.150396711E0
1.141018271E1,-2.465251900E0,-8.131221702E0,1.557828643E0,8.638348417E0
1.142011771E1,-2.045596356E0,-8.013579231E0,1.484813876E0,8.402772685E0
1.143005371E1,-1.781936339E0,-8.119331973E0,1.252796944E0,8.406446871E0
1.143998871E1,-1.666094664E0,-8.167811238E0,7.610028380E-1,8.370671250E0
1.144992471E1,-1.686481128E0,-8.110617868E0,4.399445057E-2,8.284218509E0
1.145985971E1,-1.840427499E0,-7.973608249E0,-8.205795336E-1,8.224290405E0
1.146979571E1,-1.940072093E0,-7.915155389E0,-1.637232077E0,8.312285692E0
1.147973071E1,-1.896258468E0,-8.024834536E0,-2.233072708E0,8.542855449E0
1.148966671E1,-1.823752555E0,-8.354138612E0,-2.429568974E0,8.889348161E0
1.149960171E1,-1.924591151E0,-8.827417510E0,-2.505449461E0,9.375746796E0
1.150953671E1,-2.067806712E0,-9.240777649E0,-2.464123680E0,9.784666661E0
1.151947271E1,-2.337822068E0,-9.369035740E0,-2.460707737E0,9.964904680E0
1.152940771E1,-2.620064536E0,-9.334896771E0,-2.605088647E0,1.003949813E1
1.153934371E1,-2.624141507E0,-9.276583074E0,-2.992371667E0,1.009432516E1
1.154927871E1,-2.384218554E0,-9.288621907E0,-3.458372243E0,1.019427946E1
1.155921471E1,-2.049671719E0,-9.249730321E0,-3.729062952E0,1.018158021E1
1.156914971E1,-1.641038615E0,-9.196485575E0,-3.810595357E0,1.008905306E1
1.157908571E1,-1.351853309E0,-9.171923177E0,-3.886788086E0,1.005280079E1
1.158902071E1,-1.206841337E0,-9.225068520E0,-4.205596994E0,1.021006373E1
1.159895571E1,-9.867686583E-1,-9.285638072E0,-4.750529719E0,1.047684683E1
1.160889171E1,-6.896419564E-1,-9.183284317E0,-5.226418521E0,1.058885109E1
1.161882671E1,-4.335540837E-1,-9.007707633E0,-5.392312800E0,1.050732141E1
1.162876271E1,-2.043566787E-1,-8.847677527E0,-5.400541002E0,1.036769031E1
1.163869787E1,2.428553313E-2,-8.646284802E0,-5.359300590E0,1.017255786E1
1.164863388E1,2.502798334E-1,-8.437939153E0,-5.588585118E0,1.012391924E1
1.165856887E1,5.889581653E-1,-8.136195928E0,-5.950373400E0,1.009710352E1
1.166850488E1,6.397386020E-1,-7.807370739E0,-6.478202142E0,1.016520567E1
1.167843988E1,3.185674185E-1,-7.484971055E0,-6.913474723E0,1.019423414E1
1.168837487E1,1.234832543E-1,-7.166577299E0,-7.054331224E0,1.005677221E1
1.169831088E1,2.113423473E-1,-6.987964157E0,-7.108819672E0,9.970537888E0
1.170824587E1,5.539687192E-1,-6.879053333E0,-7.171033462E0,9.952485972E0
1.171818188E1,1.290660589E0,-6.551575928E0,-7.263106644E0,9.866188221E0
1.172811687E1,2.205656283E0,-6.082183675E0,-7.657939296E0,1.002506420E1
1.173805288E1,2.871285771E0,-5.690731298E0,-8.083655187E0,1.029437642E1
1.174798788E1,3.066353563E0,-5.310994987E0,-8.286671099E0,1.030912750E1
1.175792388E1,2.891390837E0,-5.067936172E0,-7.973815241E0,9.880579311E0
1.176785888E1,3.184262082E0,-4.682388606E0,-7.071364163E0,9.059165480E0
1.177779387E1,4.099206321E0,-4.221340915E0,-6.048740525E0,8.438629836E0
1.178772988E1,5.594165116E0,-3.704414014E0,-5.188790519E0,8.481798959E0
1.179766487E1,7.475708481E0,-3.027499400E0,-4.564611357E0,9.267558835E0
1.180760088E1,9.090802415E0,-2.288312523E0,-4.274485381E0,1.030292619E1
1.181753588E1,9.815092925E0,-1.578553952E0,-3.783505792E0,1.063686033E1
1.182747188E1,9.849368134E0,-1.209161074E0,-3.293788033E0,1.045567610E1
1.183740688E1,9.882397885E0,-1.185380594E0,-2.724324192E0,1.031934385E1
1.184734288E1,9.858113229E0,-1.370739377E0,-2.075060475E0,1.016696606E1
1.185727788E1,9.676885797E0,-1.699360351E0,-1.320479634E0,9.913304736E0
1.186721288E1,9.708054965E0,-2.156109316E0,-6.050260216E-1,9.962991271E0
1.187714888E1,9.999007738E0,-2.463513523E0,-6.157235026E-2,1.029819624E1
1.188708388E1,1.020231776E1,-2.303366472E0,3.160776740E-1,1.046387548E1
1.189701988E1,1.021316786E1,-1.877969108E0,9.825684571E-1,1.043077209E1
1.190695488E1,1.018656186E1,-1.499088976E0,2.342294018E0,1.055933954E1
1.191689087E1,9.972768942E0,-1.283153495E0,4.320687740E0,1.094399131E1
1.192682588E1,9.497200860E0,-1.325646527E0,6.383188396E0,1.151951635E1
1.193676187E1,8.909787236E0,-1.710365542E0,7.684081612E0,1.188927118E1
1.194669688E1,8.229938489E0,-2.194476407E0,8.290245502E0,1.188594905E1
1.195663188E1,7.602349232E0,-2.544010094E0,8.477604910E0,1.166779697E1
1.196656788E1,6.789047728E0,-2.709273751E0,8.315699601E0,1.107168430E1
1.197650288E1,5.765408428E0,-2.759616816E0,8.070153966E0,1.029479501E1
1.198643887E1,4.875131253E0,-2.701436436E0,8.141146181E0,9.866251805E0
1.199637388E1,4.284997797E0,-2.325889362E0,8.443833146E0,9.750347976E0
1.200630987E1,3.811742581E0,-1.700746872E0,8.983886662E0,9.906166815E0
1.201624488E1,3.660947275E0,-1.254358735E0,9.544262760E0,1.029897579E1
1.202618087E1,3.622323492E0,-9.701001468E-1,9.801971773E0,1.049480693E1
1.203611588E1,3.414927723E0,-8.450767359E-1,9.757880843E0,1.037266237E1
1.204605188E1,3.381808509E0,-1.026813753E0,9.429480747E0,1.007005871E1
1.205598687E1,3.336742263E0,-1.447229728E0,8.990019806E0,9.697874970E0
1.206592188E1,2.822741017E0,-1.861618685E0,8.834162273E0,9.459170896E0
1.207585787E1,2.030953174E0,-2.254829612E0,8.954962240E0,9.455177211E0
1.208579288E1,1.135125237E0,-2.920903489E0,9.062227657E0,9.588751566E0
1.209572887E1,2.317701799E-1,-3.688784992E0,9.041924955E0,9.768175828E0
1.210566388E1,-4.691133410E-1,-4.246934178E0,9.046672894E0,1.000493916E1
1.211559988E1,-8.135435790E-1,-4.714216755E0,9.220786604E0,1.038790635E1
1.212553487E1,-6.881085241E-1,-5.463223153E0,9.537091734E0,1.101255735E1
1.213547088E1,-3.437999082E-1,-6.369643321E0,1.002043778E1,1.187854064E1
1.214540587E1,-1.583882082E-1,-7.186106415E0,1.058381116E1,1.279383723E1
1.215534088E1,6.549115419E-2,-8.342283967E0,1.095340197E1,1.376862396E1
1.216527687E1,2.909165204E-2,-9.499799947E0,1.101138647E1,1.454295972E1
1.217521188E1,-2.429816312E-1,-1.065899349E1,1.067651058E1,1.508844129E1
1.218514788E1,-7.476191461E-1,-1.165137592E1,1.002777019E1,1.539057082E1
1.219508287E1,-1.557820457E0,-1.231119327E1,9.126235957E0,1.540391077E1
1.220501888E1,-2.431228999E0,-1.264917520E1,8.130097867E0,1.523190727E1
1.221495387E1,-3.170935693E0,-1.259474815E1,7.312705650E0,1.490497159E1
1.222488988E1,-3.653171355E0,-1.229406444E1,6.612696873E0,1.442974155E1
1.223482487E1,-3.899509288E0,-1.188096333E1,5.958406305E0,1.385157277E1
1.224475988E1,-4.128769843E0,-1.145068661E1,5.376669159E0,1.330689804E1
1.225469588E1,-4.346224285E0,-1.094948901E1,4.799429106E0,1.272067195E1
1.226463087E1,-4.426535207E0,-1.036341791E1,4.321302867E0,1.206931246E1
1.227456688E1,-4.385731290E0,-9.902273741E0,3.834537951E0,1.148883569E1
1.228450187E1,-4.304861374E0,-9.679904714E0,3.290859162E0,1.109333767E1
1.229443788E1,-4.217593142E0,-9.472777625E0,2.724044695E0,1.072110196E1
1.230437287E1,-4.098811049E0,-9.215842783E0,2.228977903E0,1.032958628E1
1.231430888E1,-3.978042364E0,-9.043121295E0,1.907259420E0,1.006183394E1
1.232424388E1,-3.874847779E0,-9.021837430E0,1.693432590E0,9.963719680E0
1.233417887E1,-3.803133141E0,-9.151872489E0,1.415222654E0,1.001116611E1
1.234411488E1,-3.802396976E0,-9.287074149E0,1.029846704E0,1.008804011E1
1.235404987E1,-3.902563289E0,-9.377451637E0,6.230301833E-1,1.017618622E1
1.236398588E1,-4.138170996E0,-9.348809052E0,2.311088598E-1,1.022634349E1
1.237392087E1,-4.389629921E0,-9.121502051E0,-1.238294095E-1,1.012353615E1
1.238385688E1,-4.487905828E0,-8.889711991E0,-3.614713633E-1,9.964885326E0
1.239379188E1,-4.416674755E0,-8.801419619E0,-5.880205643E-1,9.864977009E0
1.240372788E1,-4.286519243E0,-8.870297481E0,-7.380028152E-1,9.879325522E0
1.241366288E1,-4.188240704E0,-9.188271407E0,-8.758363062E-1,1.013571807E1
1.242359888E1,-4.218735395E0,-9.502921191E0,-1.156700293E0,1.046141458E1
1.243353388E1,-4.332240084E0,-9.658137285E0,-1.537783803E0,1.069638719E1
1.244346888E1,-4.182016928E0,-9.804836324E0,-2.004481659E0,1.084629096E1
1.245340488E1,-3.662121103E0,-9.981714013E0,-2.482875408E0,1.091835225E1
1.246333988E1,-2.960394999E0,-9.952343448E0,-2.969278089E0,1.079952272E1
1.247327588E1,-2.226010441E0,-9.699707479E0,-3.412280396E0,1.052060384E1
1.248321088E1,-1.471644485E0,-9.387852080E0,-3.742964707E0,1.021309400E1
1.249314688E1,-8.835110691E-1,-9.168818305E0,-4.048731693E0,1.006181143E1
1.250308188E1,-5.371185055E-1,-9.044178472E0,-4.351318671E0,1.005085244E1
1.251301787E1,-5.623501182E-1,-8.994165482E0,-4.579170632E0,1.010841501E1
1.252295288E1,-7.648301330E-1,-9.105417531E0,-4.675622501E0,1.026426029E1
1.253288788E1,-9.481596395E-1,-9.143225042E0,-4.651183771E0,1.030199405E1
1.254282388E1,-9.237127233E-1,-9.055893953E0,-4.579795407E0,1.019004350E1
1.255275888E1,-7.628821331E-1,-8.918608346E0,-4.534269571E0,1.003410009E1
1.256269487E1,-5.426648819E-1,-8.731890378E0,-4.521248991E0,9.847948374E0
1.257262988E1,-2.630179927E-1,-8.470209351E0,-4.521350148E0,9.605010780E0
1.258256587E1,8.558803439E-2,-8.357146420E0,-4.655076554E0,9.566554203E0
1.259250088E1,3.683593833E-1,-8.313325047E0,-4.854841122E0,9.634134330E0
1.260243687E1,5.963084078E-1,-7.939089797E0,-4.959597791E0,9.379890232E0
1.261237188E1,1.102302477E0,-7.418771803E0,-5.081495866E0,9.059516877E0
1.262230688E1,1.889818345E0,-6.813628837E0,-5.248342071E0,8.805796148E0
1.263224287E1,2.612882693E0,-6.211205412E0,-5.488369689E0,8.690709435E0
1.264217758E1,3.266735305E0,-5.606598051E0,-5.987125490E0,8.828996142E0
1.265211358E1,4.118503886E0,-4.967956971E0,-6.629695898E0,9.251785689E0
1.266204858E1,5.059458295E0,-4.146697406E0,-7.052163661E0,9.619055563E0
1.267198458E1,6.304551532E0,-3.333671306E0,-6.945033900E0,9.954608493E0
1.268191958E1,7.743094636E0,-2.541820312E0,-6.472907488E0,1.040744428E1
1.269185558E1,9.063107663E0,-1.871454287E0,-5.832789402E0,1.093909018E1
1.270179058E1,1.000941461E1,-1.281487184E0,-5.078452975E0,1.129695866E1
1.271172658E1,1.055966450E1,-6.158962879E-1,-4.364288380E0,1.144258955E1
1.272166158E1,1.090135240E1,-5.888906300E-2,-3.819704150E0,1.155132424E1
1.273159658E1,1.105376358E1,2.572393356E-1,-3.437267010E0,1.157871607E1
1.274153258E1,1.075911771E1,3.988169450E-1,-2.992914289E0,1.117475748E1
1.275146758E1,1.041947166E1,3.977333097E-1,-3.100096675E0,1.087815154E1
1.276140358E1,1.037672033E1,4.666750520E-1,-3.023797528E0,1.081838536E1
1.277133858E1,1.016675032E1,6.204106307E-1,-2.786782980E0,1.056001330E1
1.278127458E1,9.707080234E0,4.232211766E-1,-2.548840479E0,1.004505404E1
1.279120958E1,9.186333640E0,1.896394562E-1,-2.439801602E0,9.506698729E0
1.280114558E1,8.625197403E0,-8.777577013E-2,-2.299771312E0,8.926963813E0
1.281108058E1,8.037957442E0,-3.975866908E-1,-2.153690908E0,8.330979507E0
1.282101558E1,7.522889664E0,-4.820543987E-1,-1.842710252E0,7.760272316E0
1.283095158E1,7.136961152E0,-2.692233320E-1,-1.231962730E0,7.247511839E0
1.284088658E1,6.903296474E0,-1.960114595E-2,-5.584529489E-1,6.925875837E0
1.285082258E1,6.718294079E0,1.677373213E-1,2.399931192E-2,6.720430575E0
1.286075758E1,6.467283052E0,4.262893568E-1,5.561918306E-1,6.505138126E0
1.287069358E1,6.030748642E0,7.300317447E-1,8.762187141E-1,6.137640814E0
1.288062858E1,5.400482529E0,1.031502051E0,1.087817169E0,5.604690377E0
1.289056458E1,4.983523428E0,1.244262202E0,1.257202236E0,5.288123642E0
1.290049958E1,4.540387512E0,1.276860137E0,1.471655302E0,4.940775233E0
1.291043458E1,3.995141085E0,1.140255730E0,1.941039954E0,4.585735657E0
1.292037058E1,3.800012482E0,5.782720864E-1,2.582611073E0,4.630806995E0
1.293030558E1,3.834729740E0,-1.580800599E-1,3.308704864E0,5.067313821E0
1.294024158E1,3.696237268E0,-7.375525796E-1,4.204025847E0,5.646236541E0
1.295017658E1,3.445208114E0,-1.297057735E0,5.488038152E0,6.608356866E0
1.296011258E1,3.131305604E0,-1.986377802E0,7.146312019E0,8.051120856E0
1.297004758E1,2.692658595E0,-2.660177020E0,8.895424721E0,9.667240198E0
1.297998358E1,2.166294581E0,-3.248061637E0,1.062755068E1,1.132199496E1
1.298991858E1,1.588022495E0,-3.471890713E0,1.224787494E1,1.282911849E1
1.299985458E1,7.497919714E-1,-3.584476219E0,1.324657704E1,1.374345157E1
1.300978958E1,-1.682331651E-1,-3.945341226E0,1.360470496E1,1.416622804E1
1.301972458E1,-7.141204476E-1,-4.370862990E0,1.363005147E1,1.433152869E1
1.302966058E1,-9.615974182E-1,-4.668769564E0,1.345430756E1,1.427376863E1
1.303959558E1,-9.899762946E-1,-5.082033225E0,1.306670148E1,1.405509880E1
1.304953158E1,-9.362649411E-1,-5.863273276E0,1.245985990E1,1.380227062E1
1.305946658E1,-8.123074776E-1,-6.534415519E0,1.178950235E1,1.350373265E1
1.306940258E1,-8.207461792E-1,-6.938503729E0,1.118875591E1,1.319108476E1
1.307933758E1,-1.034937875E0,-7.169738889E0,1.073799639E1,1.295302353E1
1.308927358E1,-1.251343911E0,-7.568234237E0,1.028531899E1,1.283089310E1
1.309920858E1,-1.447077700E0,-8.004228948E0,9.664887895E0,1.263217214E1
1.310914358E1,-1.699396750E0,-8.177006570E0,8.833117960E0,1.215628885E1
1.311907958E1,-1.821021175E0,-8.345504614E0,7.967439437E0,1.168090992E1
1.312901458E1,-1.858357401E0,-8.392978157E0,7.282966712E0,1.126664008E1
1.313895058E1,-1.816400705E0,-8.445242910E0,6.741790531E0,1.095779078E1
1.314888558E1,-1.738374875E0,-8.673304201E0,6.224211373E0,1.081614350E1
1.315882158E1,-1.583447049E0,-9.251135992E0,5.466202894E0,1.086140855E1
1.316875658E1,-1.553991115E0,-9.920777839E0,4.675349436E0,1.107680521E1
1.317869258E1,-1.978700700E0,-1.011039018E1,4.320922213E0,1.117164334E1
1.318862758E1,-2.441606053E0,-1.003726958E1,4.435651016E0,1.124202920E1
1.319856258E1,-2.598928898E0,-9.984069271E0,4.742469624E0,1.135460650E1
1.320849858E1,-2.681313535E0,-9.914634755E0,4.881531615E0,1.137184134E1
1.321843358E1,-2.913385431E0,-9.974718404E0,4.473114712E0,1.131333625E1
1.322836958E1,-3.236293823E0,-1.008057055E1,3.597507616E0,1.118184070E1
1.323830458E1,-3.589926994E0,-9.929559188E0,2.510664593E0,1.085297923E1
1.324824058E1,-3.684398118E0,-9.554439254E0,1.441714634E0,1.034121076E1
1.325817558E1,-3.606933328E0,-9.237354105E0,5.898472345E-1,9.934112877E0
1.326811158E1,-3.491776216E0,-8.948230340E0,1.424557149E-1,9.606436436E0
1.327804658E1,-3.357355453E0,-8.594122961E0,2.660260928E-1,9.230468839E0
1.328798258E1,-3.212316730E0,-8.572565446E0,4.984494066E-1,9.168222778E0
1.329791758E1,-3.260851544E0,-8.740486954E0,5.258038509E-1,9.343753779E0
1.330785258E1,-3.515448669E0,-8.861834806E0,3.549955720E-1,9.540257718E0
1.331778858E1,-3.763512700E0,-8.937947427E0,4.210287631E-2,9.698077371E0
1.332772358E1,-3.836875083E0,-9.115358382E0,-2.495527321E-1,9.893111007E0
1.333765958E1,-3.838428689E0,-9.327500628E0,-4.207317245E-1,1.009518786E1
1.334759458E1,-3.906341760E0,-9.486554834E0,-5.812477344E-1,1.027580058E1
1.335753058E1,-3.915198245E0,-9.642535159E0,-8.526351392E-1,1.044194657E1
1.336746558E1,-3.709666860E0,-9.720854520E0,-1.418931543E0,1.050095270E1
1.337740158E1,-3.514141524E0,-9.649536615E0,-2.223805456E0,1.050752389E1
1.338733658E1,-3.469284024E0,-9.525307841E0,-2.815507719E0,1.052114560E1
1.339727158E1,-3.545924065E0,-9.622981485E0,-3.022015004E0,1.069148843E1
1.340720758E1,-3.792211127E0,-9.822206647E0,-2.899727798E0,1.092085299E1
1.341714258E1,-4.026433336E0,-9.940494651E0,-2.458965266E0,1.100327722E1
1.342707858E1,-4.052717740E0,-1.013532037E1,-1.855503960E0,1.107213326E1
1.343701358E1,-3.974571457E0,-1.054642641E1,-1.340750177E0,1.134997530E1
1.344694958E1,-3.438232970E0,-1.091283399E1,-1.064925320E0,1.149110341E1
1.345688458E1,-2.559706945E0,-1.101645367E1,-1.233661931E0,1.137700632E1
1.346682058E1,-1.434800009E0,-1.069457263E1,-1.855658180E0,1.094878998E1
1.347675558E1,-3.462805894E-1,-1.004865878E1,-3.036115857E0,1.050302114E1
1.348669158E1,5.251068628E-1,-9.252494885E0,-4.352480221E0,1.023857817E1
1.349662658E1,1.329334073E0,-8.326308205E0,-5.326031102E0,9.973020841E0
1.350656158E1,1.782568130E0,-7.506471267E0,-5.986830790E0,9.765592810E0
1.351649758E1,1.532437109E0,-7.074920440E0,-6.368860964E0,9.641849029E0
1.352643258E1,7.991845715E-1,-7.021534776E0,-6.424813555E0,9.550857334E0
1.353636858E1,-7.640381277E-2,-7.199784806E0,-6.268395858E0,9.546492834E0
1.354630358E1,-9.510098648E-1,-7.373509676E0,-5.709724808E0,9.374114470E0
1.355623958E1,-1.338710668E0,-7.407487262E0,-5.033375620E0,9.055268296E0
1.356617458E1,-7.854137939E-1,-7.454735103E0,-4.813806240E0,8.908573444E0
1.357611058E1,3.972715259E-1,-7.306830368E0,-5.052822289E0,8.892615351E0
1.358604558E1,1.795985152E0,-6.791754404E0,-5.516989471E0,8.932561971E0
1.359598058E1,3.039012567E0,-5.998430496E0,-6.151243969E0,9.113427905E0
1.360591658E1,3.965288710E0,-5.048930967E0,-6.951434262E0,9.462433977E0
1.361585158E1,4.465974092E0,-4.343720507E0,-7.664080042E0,9.876788715E0
1.362578758E1,4.614566460E0,-3.994215178E0,-7.878793893E0,9.966111163E0
1.363572258E1,4.761101777E0,-3.869482082E0,-7.341937051E0,9.567916250E0
1.364565896E1,5.068919674E0,-3.809220385E0,-6.304444528E0,8.941483512E0
1.365559396E1,5.474972548E0,-3.589480266E0,-5.016447346E0,8.247692826E0
1.366552996E1,6.106810977E0,-3.273201448E0,-3.775609127E0,7.890640805E0
1.367546496E1,6.912342117E0,-3.083406675E0,-2.972870033E0,8.131778803E0
1.368540096E1,7.924919069E0,-3.049687537E0,-2.699751268E0,8.910308257E0
1.369533596E1,9.027620326E0,-2.742680356E0,-2.358959752E0,9.725477644E0
1.370527096E1,1.024513342E1,-2.119123338E0,-1.918694234E0,1.063648579E1
1.371520696E1,1.127756225E1,-1.508247470E0,-1.354153749E0,1.145827008E1
1.372514196E1,1.198544723E1,-9.740157348E-1,-6.929587895E-1,1.204490946E1
1.373507796E1,1.214288000E1,-5.816862756E-1,-3.992011070E-2,1.215686996E1
1.374501296E1,1.173053669E1,-4.396695404E-1,5.017700404E-1,1.174949248E1
1.375494896E1,1.119748814E1,-4.774722281E-1,1.003248889E0,1.125247656E1
1.376488396E1,1.026488648E1,-5.616168773E-1,1.528836978E0,1.039329834E1
1.377481996E1,9.406580712E0,-9.701216353E-1,1.321371335E0,9.548346395E0
1.378475496E1,9.314502853E0,-1.008058809E0,1.810059984E0,9.542141432E0
1.379468996E1,9.278948858E0,-7.938717914E-1,2.666028036E0,9.686941200E0
1.380462596E1,9.057904226E0,-5.926305091E-1,3.682730784E0,9.795884131E0
1.381456096E1,9.018015105E0,-2.950522560E-1,4.330834413E0,1.000838543E1
1.382449696E1,8.964109039E0,6.885388792E-3,4.607835145E0,1.007905963E1
1.383443196E1,8.623623333E0,4.330766585E-1,4.590594630E0,9.778956684E0
1.384436796E1,7.826682923E0,8.813882375E-1,4.204158579E0,8.927976263E0
1.385430296E1,6.933764561E0,1.227675259E0,3.872968192E0,8.036427075E0
1.386423896E1,6.335730640E0,1.230202133E0,4.037354473E0,7.612825439E0
1.387417396E1,5.859554447E0,7.304578605E-1,4.849646748E0,7.641140006E0
1.388410996E1,5.502767288E0,1.851295719E-1,6.230301833E0,8.314528352E0
1.389404496E1,5.342876346E0,-3.737022766E-1,7.798610440E0,9.460671532E0
1.390397996E1,5.183518084E0,-9.313357383E-1,9.234291918E0,1.063054059E1
1.391391596E1,4.745230095E0,-1.345324454E0,1.056065151E1,1.165566244E1
1.392385096E1,4.022458692E0,-1.650723065E0,1.149699071E1,1.229169866E1
1.393378696E1,2.995619211E0,-2.154841494E0,1.192854797E1,1.248628580E1
1.394372196E1,1.897941881E0,-2.626813977E0,1.191788616E1,1.235064150E1
1.395365796E1,8.189563465E-1,-3.116606873E0,1.161179845E1,1.205063447E1
1.396359296E1,-9.044414699E-2,-3.755509908E0,1.125211985E1,1.186264034E1
1.397352896E1,-7.891887563E-1,-4.477085848E0,1.126467733E1,1.214743067E1
1.398346396E1,-1.341345423E0,-4.784574255E0,1.165449716E1,1.266959598E1
1.399339896E1,-1.521302256E0,-4.802595666E0,1.205327025E1,1.306371346E1
1.400333496E1,-1.316783025E0,-4.511674760E0,1.252984873E1,1.338231056E1
1.401326996E1,-1.219269594E0,-4.124184456E0,1.260747052E1,1.332080436E1
1.402320596E1,-1.194568031E0,-4.092013661E0,1.178147997E1,1.252896001E1
1.403314096E1,-1.140460237E0,-4.343983339E0,1.028981784E1,1.122725220E1
1.404307696E1,-1.574264581E0,-4.773976176E0,8.246090253E0,9.657492530E0
1.405301196E1,-2.183464930E0,-5.180257092E0,6.817406139E0,8.836266695E0
1.406294796E1,-2.537673467E0,-5.338525432E0,6.058044029E0,8.464014289E0
1.407288296E1,-2.886783816E0,-5.417796720E0,5.730460789E0,8.397870144E0
1.408281896E1,-3.237788079E0,-5.449899688E0,6.028772868E0,8.748187272E0
1.409275396E1,-3.229434747E0,-5.544282519E0,5.891947437E0,8.711105672E0
1.410268896E1,-3.165334060E0,-5.558320515E0,5.094127606E0,8.177065654E0
1.411262496E1,-3.189903476E0,-5.552664503E0,3.882811394E0,7.488911242E0
1.412255996E1,-3.188701873E0,-5.667813721E0,2.438432769E0,6.945349982E0
1.413249596E1,-3.108855219E0,-5.985682397E0,1.401163609E0,6.888877557E0
1.414243096E1,-3.014285277E0,-6.233234797E0,9.548567480E-1,6.989340682E0
1.415236696E1,-2.908772271E0,-6.354637612E0,4.978991836E-1,7.006445525E0
1.416230196E1,-3.500664861E0,-6.481551427E0,-1.415026188E-4,7.366489218E0
1.417223796E1,-4.593747448E0,-6.346714050E0,-1.000259208E0,7.898342442E0
1.418217296E1,-5.144262802E0,-5.958930216E0,-2.094389032E0,8.146088295E0
1.419210796E1,-4.722645517E0,-5.566038254E0,-2.406913353E0,7.686182044E0
1.420204396E1,-3.405172228E0,-5.096382877E0,-2.322163224E0,6.554445695E0
1.421197896E1,-2.294180204E0,-4.330462530E0,-2.554228104E0,5.526323348E0
1.422191496E1,-2.352430167E0,-3.533382372E0,-2.961738689E0,5.175965102E0
1.423184996E1,-2.726498187E0,-3.089758798E0,-2.763158182E0,4.961395462E0
1.424178596E1,-2.341603170E0,-2.836986004E0,-2.141972211E0,4.256717038E0
1.425172096E1,-1.602338525E0,-3.064908131E0,-1.544327422E0,3.787624294E0
1.426165696E1,-8.613574308E-1,-3.322935818E0,-1.104889870E0,3.606191994E0
1.427159196E1,-8.235902649E-1,-3.181232640E0,-1.192071855E0,3.495651204E0
1.428152796E1,-1.362091929E0,-2.585969129E0,-1.485398598E0,3.278557572E0
1.429146296E1,-1.714378486E0,-1.669084200E0,-2.013565893E0,3.127200548E0
1.430139796E1,-1.929956557E0,-9.816492748E-1,-2.364587697E0,3.206188171E0
1.431133396E1,-1.696950568E0,-7.080042601E-1,-2.347322624E0,2.981750285E0
1.432126896E1,-1.024351052E0,-1.087468675E0,-2.387745595E0,2.816595857E0
1.433120496E1,-4.635731041E-1,-1.543442153E0,-2.115390476E0,2.659321449E0
1.434113996E1,1.742430796E-1,-1.743878274E0,-1.751894807E0,2.478024919E0
1.435107596E1,6.381070827E-1,-1.651540214E0,-1.550545936E0,2.353499187E0
1.436101096E1,6.123500977E-1,-1.235871009E0,-1.048072475E0,1.732283379E0
1.437094696E1,8.070308040E-1,-8.390953267E-1,-6.157889915E-1,1.317032941E0
1.438088196E1,6.791415265E-1,-3.933609080E-1,-6.634385365E-1,1.027675391E0
1.439081696E1,1.584281154E-1,-1.718829972E-1,-8.897000545E-1,9.198964178E-1
1.440075296E1,1.349872126E-1,-3.071518993E-1,-1.454607160E0,1.492797986E0
1.441068796E1,-6.014153659E-2,-9.271988332E-2,-2.310797406E0,2.313438703E0
1.442062396E1,2.467554241E-2,1.626251006E-1,-3.216539297E0,3.220742283E0
1.443055896E1,3.317365175E-1,5.742608964E-2,-3.910918375E0,3.925382709E0
1.444049496E1,4.689082499E-1,-3.804221892E-1,-3.782216481E0,3.830111943E0
1.445042996E1,3.673997091E-1,-6.600062209E-1,-2.682442340E0,2.786770114E0
1.446036596E1,2.055500954E-2,-4.194272107E-1,-1.303206375E0,1.369192663E0
1.447030096E1,3.752672839E-1,-2.079310817E-1,-2.893202305E-3,4.290329122E-1
1.448023696E1,-5.004035461E-1,7.121283013E-1,9.857750702E-1,1.315022021E0
1.449017196E1,-4.114612564E-1,7.910417390E-1,1.345507472E0,1.614136845E0
1.450010696E1,-2.996578154E-1,3.531694865E-1,7.785766447E-1,9.059277478E-1
1.451004296E1,-4.771748972E-1,-9.787478864E-2,-3.204104608E-1,5.830422113E-1
1.451997796E1,-5.733395214E-1,-3.128739846E-1,-1.648278052E0,1.772971764E0
1.452991396E1,-5.742572419E-1,-1.534911650E-1,-2.556327254E0,2.624526614E0
1.453984896E1,-4.597510716E-1,1.658504248E-1,-2.593997941E0,2.639640644E0
1.454978496E1,1.556272991E-1,2.300236166E-1,-1.811031792E0,1.832202737E0
1.455971996E1,5.568350244E-1,2.645180959E-1,-9.517115307E-1,1.133926764E0
1.456965596E1,1.881597452E-1,5.611268806E-1,-3.522713542E-1,6.887398441E-1
1.457959096E1,-1.961627562E-1,7.786380404E-1,2.736263037E-2,8.034337175E-1
1.458952596E1,-6.618224392E-1,9.084444737E-1,7.407135844E-1,1.346082062E0
1.459946196E1,-1.045848706E0,7.028733283E-1,1.133155895E0,1.694660058E0
1.460939696E1,-1.186854238E0,-2.128854275E-2,2.627686089E-1,1.215781036E0
1.461933296E1,-1.421067239E0,-1.328101480E-1,-8.230938363E-1,1.647590391E0
1.462926796E1,-1.284603750E0,3.018245012E-1,-1.103104715E0,1.719925823E0
1.463920396E1,-8.620013554E-1,7.372707438E-1,-6.034776789E-1,1.284834540E0
1.464913883E1,-7.612808000E-1,1.095454218E0,3.416978341E-1,1.377071461E0
1.465907483E1,-5.405378111E-1,1.291554628E0,1.201406350E0,1.844904252E0
1.466900983E1,-7.222852803E-1,7.776475221E-1,1.277203807E0,1.660626767E0
1.467894583E1,-9.038642035E-1,3.944414735E-2,8.022859347E-1,1.209210098E0
1.468888083E1,-1.176220127E0,-4.802341604E-1,3.235849142E-1,1.311039981E0
1.469881583E1,-1.436824608E0,-7.141759962E-1,7.221311331E-2,1.606152870E0
1.470875183E1,-1.579589933E0,-6.826758760E-1,2.288062263E-1,1.735944411E0
1.471868683E1,-1.907540963E0,-5.286584616E-1,3.379006523E-1,2.008075981E0
1.472862283E1,-2.078507117E0,-2.420589405E-1,-5.448277670E-1,2.162318584E0
1.473855783E1,-1.725359557E0,2.550555468E-2,-1.634954587E0,2.377097523E0
1.474849383E1,-1.378137566E0,4.887804508E-2,-1.931320127E0,2.373109700E0
1.475842883E1,-1.500951314E0,-8.979101300E-2,-1.251652059E0,1.956412572E0
1.476836483E1,-1.632521268E0,-2.135075712E-1,-3.233247131E-1,1.677870687E0
1.477829983E1,-1.498851287E0,-3.320844269E-1,3.945666039E-1,1.585092443E0
1.478823583E1,-1.134807002E0,-4.235559297E-1,9.394107431E-1,1.532866303E0
1.479817083E1,-1.106697390E0,-2.908545399E-1,1.391113415E0,1.801269555E0
1.480810583E1,-2.066194196E0,-3.776652271E-1,2.050484043E0,2.935349092E0
1.481804183E1,-3.297229704E0,-3.516673368E-1,2.232942315E0,3.997677453E0
1.482797683E1,-2.048248653E0,2.035450852E-1,4.606436491E-1,2.109252407E0
1.483791283E1,-1.556869699E0,1.910109937E-1,-4.404087746E-1,1.629198683E0
1.484784783E1,-1.106420671E0,1.215735537E-1,-1.050394989E0,1.530449758E0
1.485778383E1,-2.338637023E-1,4.517301536E-1,-1.699078662E0,1.773589767E0
1.486771883E1,-4.188804960E-1,6.863584524E-1,-1.448375782E0,1.656605325E0
1.487765483E1,-9.563482996E-1,7.313691491E-1,-6.811672944E-1,1.383290203E0
1.488758983E1,-1.206262024E0,4.846008611E-1,8.603417695E-2,1.302807716E0
1.489752483E1,-1.599047859E0,-1.170787990E-1,1.132158945E0,1.962764727E0
1.490746083E1,-1.761861532E0,-7.084077179E-1,1.709254571E0,2.554906797E0
1.491739583E1,-2.057882818E0,-8.044698697E-1,1.761733916E0,2.825908678E0
1.492733183E1,-1.760516088E0,-4.939113826E-1,1.667117196E0,2.474397926E0
1.493726683E1,-1.158840374E0,-5.212909698E-2,7.609882200E-1,1.387346938E0
1.494720283E1,-8.535605342E-1,2.885057133E-1,-2.739110631E-1,9.417156697E-1
1.495713783E1,-5.863424134E-1,1.095984560E-1,-6.855187923E-1,9.087052668E-1
1.496707383E1,-1.869163348E-1,-2.568868947E-1,-9.446697289E-1,9.966591642E-1
1.497700883E1,-2.501804307E-1,-5.474443960E-1,-8.206391752E-1,1.017710308E0
1.498694383E1,-6.877512592E-1,-4.562997526E-1,-4.973320037E-1,9.636131904E-1
1.499687983E1,-1.113922722E0,-2.893939054E-1,-1.495144737E-1,1.160571945E0
1.500681483E1,-1.620193291E0,-2.896827579E-2,1.775328693E-1,1.630148269E0
1.501675083E1,-2.177334709E0,2.818977749E-1,1.587884501E-1,2.201242050E0
1.502668583E1,-2.778760308E0,4.983102429E-1,-5.379789233E-1,2.873889919E0
1.503662183E1,-2.915733673E0,6.374774837E-1,-1.225085819E0,3.226254122E0
1.504655683E1,-2.047541140E0,2.511507761E-1,-1.461782863E0,2.528301914E0
1.505649283E1,-9.820115098E-1,-3.400623679E-2,-1.082208228E0,1.461737896E0
1.506642783E1,-5.163956444E-1,1.040909636E-1,-5.389457604E-1,7.536324853E-1
1.507636383E1,-7.296328184E-1,1.673987675E-1,-3.296739122E-1,8.179677778E-1
1.508629883E1,-1.187694922E0,-3.517158687E-2,-1.460008818E-1,1.197151839E0
1.509623383E1,-1.440472832E0,-2.611588705E-1,1.179044259E-1,1.468695812E0
1.510616983E1,-1.600287761E0,-3.329135621E-1,1.183838975E-1,1.638831017E0
1.511610483E1,-1.771387377E0,-3.565123397E-1,-5.830668032E-2,1.807847880E0
1.512604083E1,-1.758822880E0,-3.525736552E-1,-4.025082922E-1,1.838417535E0
1.513597583E1,-1.520443739E0,-2.673580885E-1,-9.029334730E-1,1.788440205E0
1.514591183E1,-1.215095705E0,7.930870950E-2,-1.111634048E0,1.648780671E0
1.515584683E1,-8.941814337E-1,3.447857487E-1,-9.874643308E-1,1.376053579E0
1.516578283E1,-7.769541885E-1,2.416221535E-1,-4.266008672E-1,9.187096255E-1
1.517571783E1,-9.766614537E-1,5.444284022E-2,2.052352229E-1,9.994764203E-1
1.518565283E1,-1.239784404E0,2.007933855E-2,7.704560316E-1,1.459818840E0
1.519558883E1,-1.409071383E0,-7.689088583E-2,9.331717640E-1,1.691804928E0
1.520552383E1,-1.452591332E0,-3.786539912E-2,5.970597750E-1,1.570966500E0
1.521545983E1,-1.354683507E0,8.992491424E-2,-4.771737278E-2,1.358503162E0
1.522539483E1,-1.352232062E0,1.177845579E-1,-7.660519087E-1,1.558602027E0
1.523533083E1,-1.280500321E0,1.786990964E-1,-1.235616070E0,1.788396352E0
1.524526583E1,-8.691587128E-1,3.132148772E-1,-1.462971017E0,1.730267212E0
1.525520183E1,-6.238400227E-1,4.081514400E-1,-1.489692501E0,1.665817432E0
1.526513683E1,-7.207609112E-1,5.426175195E-1,-1.389549285E0,1.656736937E0
1.527507283E1,-9.422402108E-1,4.347451615E-1,-1.415571733E0,1.755181843E0
1.528500783E1,-1.677446449E0,2.306141853E-1,-2.024863883E0,2.639523297E0
1.529494283E1,-1.827781287E0,3.415148163E-1,-6.957139975E-1,1.985304704E0
1.530487883E1,-1.202483700E0,4.047752577E-1,1.263031910E0,1.790268042E0
1.531481383E1,-1.203846247E0,3.527835703E-1,9.632109573E-1,1.581605950E0
1.532474983E1,-9.937971577E-1,3.199999863E-1,1.818299881E-1,1.059761731E0
1.533468483E1,-9.406539343E-1,1.113859499E-1,-3.349858153E-1,1.004714960E0
1.534462083E1,-1.187365285E0,-9.410333455E-2,-8.617146957E-1,1.470116993E0
1.535455583E1,-1.460735919E0,-7.291594863E-2,-1.166272185E0,1.870630100E0
1.536449183E1,-1.870152989E0,-1.193340701E-1,-8.864373082E-1,2.073037367E0
1.537442683E1,-2.092135807E0,-1.816864389E-1,-6.678441212E-1,2.203646516E0