"Time (s)","Linear Acceleration x (m/s^2)","Linear Acceleration y (m/s^2)","Linear Acceleration z (m/s^2)","Absolute acceleration (m/s^2)"
2.365424999E-2,-9.751781613E-2,7.666348761E-1,-9.125006872E-1,1.195782698E0
3.359025001E-2,-5.956675529E-2,8.469569081E-1,-7.789380026E-1,1.152227675E0
4.352524999E-2,-5.971965998E-2,8.971084768E-1,-7.359709078E-1,1.161905002E0
5.346125001E-2,-2.774650007E-2,8.926938289E-1,-7.421309495E-1,1.161219396E0
6.339625001E-2,-2.396159738E-2,7.931479061E-1,-5.886520636E-1,9.880126573E-1
7.333225000E-2,-1.324400192E-1,6.120058429E-1,-3.712976092E-1,7.279790004E-1
8.326725001E-2,1.516884685E-2,6.044757986E-1,-5.340379000E-2,6.070198101E-1
9.320325000E-2,1.789464337E-1,5.847645423E-1,2.458040822E-1,6.590834870E-1
1.031392500E-1,2.086853725E-1,2.422349417E-1,2.465700674E-1,4.037624918E-1
1.130742500E-1,3.370168456E-1,-5.128388196E-2,2.450252330E-1,4.198187176E-1
1.230102500E-1,4.877498791E-1,-1.630323592E-1,7.699555099E-2,5.200075091E-1
1.329452500E-1,5.780422908E-1,-2.121434158E-1,-2.754886419E-1,6.745603832E-1
1.428812500E-1,4.619972795E-1,-1.554938364E-1,-4.322852379E-1,6.515292368E-1
1.528172500E-1,3.676457307E-1,-2.729948044E-2,-4.621510613E-1,5.911786941E-1
1.627522500E-1,4.653506577E-1,-1.762637311E-1,-7.140339088E-1,8.703243996E-1
1.726882500E-1,2.422820118E-1,5.247671396E-2,-9.029024827E-1,9.363157972E-1
1.826232500E-1,4.862076759E-2,5.377874270E-1,-9.157967627E-1,1.063138282E0
1.925592500E-1,2.966026452E-1,7.019459599E-1,-9.291377699E-1,1.201664785E0
2.024942500E-1,4.323340622E-1,7.345956427E-1,-7.803834343E-1,1.155656439E0
2.124302500E-1,3.173678622E-1,7.489876869E-1,-4.718077379E-1,9.403762315E-1
2.223662500E-1,2.915041655E-1,7.466452923E-1,-1.816618806E-1,8.218606390E-1
2.323012500E-1,2.991920847E-1,5.773575819E-1,1.576818645E-1,6.691197585E-1
2.422372500E-1,2.538159370E-2,3.197910945E-1,4.857551014E-1,5.821242032E-1
2.521722500E-1,-4.635716423E-1,2.690922265E-1,7.321702176E-1,9.074042768E-1
2.621082500E-1,-7.536765692E-1,2.551955876E-1,8.528900778E-1,1.166436729E0
2.720442500E-1,-5.333754104E-1,1.406644204E-1,8.187897009E-1,9.872651021E-1
2.819792500E-1,1.745412876E-1,-1.576163757E-1,4.915075922E-1,5.448736515E-1
2.919152500E-1,1.006051460E0,-5.810711485E-1,1.906174761E-1,1.177335229E0
3.018502500E-1,1.467697906E0,-9.330763082E-1,4.134624660E-2,1.739677572E0
3.117862500E-1,1.647231401E0,-9.378922212E-1,-1.849988866E-1,1.904530833E0
3.217212500E-1,1.718299044E0,-4.233100542E-1,-4.105201471E-1,1.816664471E0
3.316572500E-1,1.389243183E0,5.357107884E-1,-5.365867013E-1,1.582690102E0
3.415932500E-1,3.760107574E-1,1.059831226E0,6.340592015E-1,1.290990855E0
3.515282500E-1,5.420674427E-1,4.668319036E-1,2.815644836E-1,7.687962650E-1
3.614642500E-1,1.211559894E0,1.092113703E-2,5.908576334E-1,1.348002000E0
3.713992500E-1,1.260616279E0,-3.618651733E-1,7.430776137E-1,1.507403114E0
3.813352500E-1,1.295235450E0,5.857038975E-2,2.715680838E-1,1.324694148E0
3.912702500E-1,1.403593273E0,6.944439822E-1,-1.367488325E-1,1.571949988E0
4.012062500E-1,1.538865830E0,9.607296914E-1,-1.632577693E-1,1.821472668E0
4.111422500E-1,1.917338119E0,1.147605680E0,6.482521480E-1,2.326674689E0
4.210772500E-1,2.238969332E0,1.239567618E0,1.787641760E0,3.121726223E0
4.310132500E-1,2.183066881E0,8.506790994E-1,2.558372025E0,3.469106997E0
4.409482500E-1,2.284761948E0,6.690572722E-1,3.133988891E0,3.935690684E0
4.508842500E-1,2.045761247E0,5.481982483E-1,3.196181046E0,3.834218784E0
4.608192500E-1,1.429332570E0,-1.921161175E-1,2.436562829E0,2.831384576E0
4.707552500E-1,1.098475913E0,-2.267708105E-1,1.207754672E0,1.648255344E0
4.806912500E-1,1.276360492E0,5.579038954E-1,6.340615404E-1,1.530485838E0
4.906262500E-1,1.313038468E0,1.291731068E0,8.882745034E-1,2.044913388E0
5.005622500E-1,1.963214204E0,1.945175689E0,1.345822052E0,3.073947863E0
5.104972500E-1,2.519234272E0,2.297654766E0,1.695201958E0,3.807816752E0
5.204332500E-1,2.235412032E0,1.971262457E0,2.301036065E0,3.765329946E0
5.303692500E-1,1.464355930E0,1.392843314E0,2.969145357E0,3.591681353E0
5.403042500E-1,4.256118107E-1,1.030591347E0,3.274145481E0,3.458799296E0
5.502402500E-1,-4.015635649E-1,5.889432549E-1,3.344826039E0,3.419936942E0
5.601752500E-1,-6.969512683E-1,5.786138561E-1,3.700099354E0,3.809366127E0
5.701112500E-1,-1.125375370E0,7.855032563E-1,4.151489199E0,4.372453277E0
5.800462500E-1,-1.254946526E0,5.253726187E-1,4.461387536E0,4.664213323E0
5.899822500E-1,-6.924945205E-1,8.374586910E-2,4.935796700E0,4.984842134E0
5.999182500E-1,-4.562276857E-1,-1.919102955E-1,5.417027811E0,5.439592224E0
6.098532500E-1,-1.060875539E0,-7.665989158E-1,5.535978304E0,5.688601461E0
6.197892500E-1,-2.264075230E0,-1.465872990E0,5.044481236E0,5.720280694E0
6.297242500E-1,-3.595746435E0,-2.174774213E0,4.702731362E0,6.306720032E0
6.396602500E-1,-4.643430070E0,-2.854686111E0,4.646323273E0,7.162331713E0
6.495962500E-1,-5.302398410E0,-3.186130560E0,4.667395468E0,7.749286245E0
6.595312500E-1,-5.427012516E0,-3.421498824E0,4.827891013E0,8.029174969E0
6.694672500E-1,-4.870839397E0,-3.511253292E0,5.034427534E0,7.835779266E0
6.794022500E-1,-4.182634394E0,-3.503562157E0,4.972316070E0,7.381958098E0
6.893382500E-1,-3.995881050E0,-3.622170002E0,4.612928070E0,7.096920901E0
6.992732500E-1,-4.128848196E0,-3.955731436E0,4.059105531E0,7.012241890E0
7.092092500E-1,-4.301691306E0,-4.438979836E0,3.569594178E0,7.138003409E0
7.191452500E-1,-4.498437833E0,-4.934194563E0,2.935890487E0,7.293947620E0
7.290802500E-1,-4.585369558E0,-5.270997693E0,2.161471213E0,7.313069702E0
7.390162500E-1,-4.430591713E0,-5.298085504E0,1.503582854E0,7.068282276E0
7.489512500E-1,-4.014483382E0,-5.075190813E0,7.446885216E-1,6.513693238E0
7.588872500E-1,-3.654825825E0,-4.905817441E0,-8.779009581E-2,6.118210823E0
7.688232500E-1,-3.238292693E0,-4.897434872E0,-6.919536531E-1,5.911870073E0
7.787582500E-1,-2.791040338E0,-4.853650337E0,-9.806295204E-1,5.684141273E0
7.886942500E-1,-2.705032473E0,-4.941159182E0,-1.211965252E0,5.762040829E0
7.986292500E-1,-2.923540876E0,-5.236331306E0,-1.303204036E0,6.137148976E0
8.085652500E-1,-3.027326322E0,-5.542068179E0,-1.595899279E0,6.513533516E0
8.185002500E-1,-2.829060103E0,-5.689743703E0,-2.350752016E0,6.775160479E0
8.284362500E-1,-2.456210351E0,-5.746879186E0,-2.789958018E0,6.844227890E0
8.383722500E-1,-1.894603121E0,-5.915064989E0,-2.589380395E0,6.729220284E0
8.483072500E-1,-1.628434064E0,-6.164410145E0,-2.383248501E0,6.806733677E0
8.582432500E-1,-1.333835844E0,-6.394101639E0,-2.426908491E0,6.968036930E0
8.681782500E-1,-1.034467028E0,-6.459340194E0,-2.485266627E0,6.997838808E0
8.781142500E-1,-1.099832174E0,-6.434062096E0,-2.447018820E0,6.970988952E0
8.880492500E-1,-1.273501788E0,-6.546822141E0,-2.607677502E0,7.161191864E0
8.979852500E-1,-1.409861927E0,-6.775383954E0,-2.884780560E0,7.497699464E0
9.079212500E-1,-1.601554414E0,-7.057392826E0,-3.250830878E0,7.933452681E0
9.178562500E-1,-1.722594117E0,-7.350885045E0,-3.578453879E0,8.355128581E0
9.277922500E-1,-1.594911684E0,-7.548682902E0,-3.943090925E0,8.664544009E0
9.377272500E-1,-1.204751323E0,-7.663648517E0,-4.087392021E0,8.768677659E0
9.476632500E-1,-6.314202069E-1,-7.817797494E0,-4.081924875E0,8.841875356E0
9.575992500E-1,-5.633485302E-2,-8.012461828E0,-3.898672552E0,8.910800515E0
9.675343750E-1,5.401612504E-1,-8.076964803E0,-3.651175700E0,8.880327618E0
9.774703750E-1,1.540081466E0,-7.848021167E0,-3.541354465E0,8.746683864E0
9.874053750E-1,3.013639160E0,-7.254553337E0,-3.404839522E0,8.561746158E0
9.973413750E-1,4.348972476E0,-6.296490560E0,-3.355734605E0,8.355854816E0
1.007276375E0,5.065812464E0,-5.489928557E0,-3.402893568E0,8.208620841E0
1.017212375E0,5.181251704E0,-4.958707845E0,-3.710095169E0,8.074587226E0
1.027148375E0,5.098611251E0,-4.635110067E0,-4.276756439E0,8.109915392E0
1.037083375E0,5.425729637E0,-4.414820310E0,-4.893825971E0,8.536903016E0
1.047019375E0,5.773121490E0,-4.072947645E0,-5.615000499E0,9.024747357E0
1.056954375E0,5.896866699E0,-3.871736768E0,-6.245473019E0,9.421746956E0
1.066890375E0,6.092116925E0,-4.171751556E0,-6.305525093E0,9.709636778E0
1.076826375E0,6.420497725E0,-4.387744778E0,-6.046667102E0,9.850750140E0
1.086761375E0,6.724711983E0,-4.518598740E0,-4.948769333E0,9.493671773E0
1.096697375E0,7.268070345E0,-4.400249049E0,-3.339012737E0,9.128857776E0
1.106632375E0,7.987274362E0,-3.750595908E0,-1.330559649E0,8.923783412E0
1.116568375E0,9.105957229E0,-2.575630082E0,1.120556315E0,9.529321792E0
1.126503375E0,1.068224085E1,-1.106318637E0,3.490960822E0,1.129252045E1
1.136439375E0,1.151921130E1,1.141671780E-1,5.052075600E0,1.257890023E1
1.146375375E0,1.157813486E1,7.182395187E-1,5.522082980E0,1.284766420E1
1.156310375E0,1.125050017E1,6.244769306E-1,4.473630436E0,1.212341102E1
1.166246375E0,1.026310308E1,5.252539203E-2,1.815601391E0,1.042259335E1
1.176181375E0,9.146548015E0,-9.096777977E-1,-1.433465382E0,9.302777934E0
1.186117375E0,7.741262119E0,-1.105362179E0,-1.800515574E0,8.024389140E0
1.196053375E0,7.014391233E0,-1.416107338E0,-8.909642226E-1,7.211162292E0
1.205988375E0,6.649710917E0,-1.754052722E0,2.895114344E-1,6.883253090E0
1.215924375E0,6.394910309E0,-1.571176228E0,1.176108956E0,6.689297787E0
1.225859375E0,6.405768589E0,-1.135130938E0,1.847028421E0,6.762684929E0
1.235795375E0,6.418248886E0,-6.409548229E-1,2.277207491E0,6.840352023E0
1.245730375E0,6.408463570E0,-1.554008657E-1,2.435116813E0,6.857284350E0
1.255666375E0,6.293891473E0,2.121359606E-1,2.224945078E0,6.678955917E0
1.265602375E0,6.154413160E0,4.288393275E-1,1.432352657E0,6.333430243E0
1.275537375E0,6.051085843E0,7.469034469E-1,5.539166790E-1,6.122117961E0
1.285473375E0,5.869553186E0,1.148343526E0,3.479034841E-2,5.980932855E0
1.295408375E0,5.531795790E0,1.437978702E0,-5.726178288E-2,5.715927425E0
1.305344375E0,4.936063333E0,1.533709171E0,2.430816185E-1,5.174560244E0
1.315279375E0,4.294056889E0,1.423747018E0,7.276128978E-1,4.582073838E0
1.325215375E0,3.648907858E0,1.347462196E0,1.408251019E0,4.136828962E0
1.335151375E0,3.181210128E0,1.424920262E0,2.190426040E0,4.116850965E0
1.345086375E0,3.174117455E0,1.428640114E0,2.565212683E0,4.323927648E0
1.355022375E0,3.560465797E0,1.171762867E0,2.369681792E0,4.434561614E0
1.364957375E0,3.355158654E0,5.935127078E-1,2.366259416E0,4.148316593E0
1.374893375E0,2.857997681E0,-2.699753022E-1,2.749120479E0,3.974757957E0
1.384829375E0,2.368726357E0,-1.531843616E0,3.476627542E0,4.477091521E0
1.394764375E0,1.629404410E0,-2.831378232E0,4.814497966E0,5.818165697E0
1.404700375E0,7.911487430E-1,-3.732515148E0,6.415802996E0,7.464590661E0
1.414635375E0,2.240021539E-1,-4.070916614E0,8.165960010E0,9.127181489E0
1.424571375E0,6.910707235E-2,-4.223250615E0,9.698229303E0,1.057810348E1
1.434507375E0,-1.734500510E-1,-4.505400405E0,1.076474507E1,1.167083776E1
1.444442375E0,-4.234267062E-1,-5.316900090E0,1.097744104E1,1.220462734E1
1.454378375E0,-8.484368384E-1,-6.432940600E0,1.061350216E1,1.243981502E1
1.464313375E0,-1.760856249E0,-7.221664503E0,1.033564013E1,1.273100584E1
1.474249375E0,-2.666148489E0,-7.774069676E0,1.025040527E1,1.313831478E1
1.484184375E0,-2.909440023E0,-8.146782312E0,1.057737455E1,1.366439738E1
1.494120375E0,-2.492863914E0,-8.645473208E0,1.087815532E1,1.411711163E1
1.504056375E0,-2.171331373E0,-9.297548266E0,1.114976784E1,1.467911464E1
1.513991375E0,-2.187110084E0,-9.519327893E0,1.134046192E1,1.496686776E1
1.523927375E0,-2.184903930E0,-9.540526974E0,1.123200192E1,1.489809811E1
1.533862375E0,-2.204150917E0,-9.742393323E0,1.043825876E1,1.444748265E1
1.543798375E0,-2.570904070E0,-1.017596670E1,9.180252535E0,1.394406263E1
1.553733375E0,-2.820998547E0,-1.043522874E1,7.888928288E0,1.338234737E1
1.563669375E0,-3.063964975E0,-1.051677050E1,6.791090745E0,1.288833801E1
1.573605375E0,-3.073482488E0,-1.067198718E1,6.081120651E0,1.266165997E1
1.583540375E0,-2.684388878E0,-1.079187381E1,5.763199934E0,1.252537255E1
1.593476375E0,-2.426236354E0,-1.075845229E1,5.494226260E0,1.232142203E1
1.603411375E0,-2.301042204E0,-1.055365707E1,5.325690794E0,1.204314972E1
1.613347375E0,-2.083133141E0,-1.017489549E1,5.205606526E0,1.161749893E1
1.623283375E0,-1.678325139E0,-9.790424691E0,5.098049333E0,1.116509283E1
1.633218375E0,-1.312910998E0,-9.593299849E0,4.804324980E0,1.080910153E1
1.643154375E0,-1.100279194E0,-9.725134097E0,3.931725107E0,1.054738403E1
1.653089375E0,-8.627685101E-1,-9.998957452E0,2.549351526E0,1.035484007E1
1.663025375E0,-5.875109795E-1,-1.019010644E1,9.579943639E-1,1.025188722E1
1.672960375E0,-3.720877142E-1,-1.013362701E1,-3.474585110E-1,1.014640691E1
1.682896375E0,-3.646710328E-1,-9.964567637E0,-1.326394093E0,1.005907125E1
1.692832375E0,-4.243309050E-1,-9.820508616E0,-2.240647191E0,1.008181264E1
1.702767375E0,-3.133886126E-1,-9.808917096E0,-2.723420797E0,1.018479690E1
1.712703375E0,-4.548216496E-1,-9.901043487E0,-3.017165031E0,1.036054099E1
1.722638375E0,-5.729150867E-1,-1.013837028E1,-3.346692470E0,1.069182557E1
1.732574375E0,-6.327033783E-1,-1.045506951E1,-3.582674400E0,1.106997506E1
1.742510375E0,-5.806959035E-1,-1.066367945E1,-3.705595152E0,1.130410114E1
1.752445375E0,-2.927357353E-1,-1.074427864E1,-3.853051990E0,1.141802204E1
1.762381375E0,2.515939951E-2,-1.067734907E1,-4.108485852E0,1.144054510E1
1.772316375E0,4.700545965E-1,-1.051296630E1,-4.589984765E0,1.148091337E1
1.782252375E0,1.160654619E0,-1.016649304E1,-5.061878457E0,1.141609887E1
1.792187375E0,1.847855948E0,-9.729477409E0,-5.494138552E0,1.132531945E1
1.802123375E0,2.571351675E0,-9.244860175E0,-5.808926915E0,1.121708166E1
1.812059375E0,3.148810121E0,-8.753740838E0,-6.279397979E0,1.122380608E1
1.821994375E0,3.211156350E0,-8.319167000E0,-6.845877986E0,1.124215771E1
1.831930375E0,2.772668386E0,-7.882074181E0,-7.505053318E0,1.123123362E1
1.841865375E0,2.380178421E0,-7.495939847E0,-8.247973056E0,1.139664087E1
1.851801375E0,2.024512466E0,-7.248749390E0,-8.669554381E0,1.148060066E1
1.861737375E0,1.420029943E0,-7.236708804E0,-8.731617898E0,1.142924278E1
1.871672375E0,1.007488413E0,-7.292178415E0,-8.468199663E0,1.122057505E1
1.881608375E0,8.217258802E-1,-7.427110518E0,-7.913547404E0,1.088399911E1
1.891543375E0,1.084014140E0,-7.699400733E0,-7.425698415E0,1.075159780E1
1.901479375E0,1.681461586E0,-7.685009565E0,-7.171223497E0,1.064486409E1
1.911414375E0,2.203081169E0,-7.274259038E0,-7.124109557E0,1.041735802E1
1.921350375E0,2.729118909E0,-6.771369841E0,-6.996307549E0,1.011176833E1
1.931286375E0,3.492690428E0,-6.259297006E0,-6.545235792E0,9.706585239E0
1.941221375E0,4.290147732E0,-5.786989331E0,-6.179792415E0,9.491282705E0
1.951157375E0,5.261686002E0,-5.297410151E0,-5.627034069E0,9.349406736E0
1.961092375E0,6.429646863E0,-4.694789966E0,-5.104918642E0,9.457357239E0
1.971029125E0,7.592083860E0,-4.112542650E0,-4.612632785E0,9.789235190E0
1.980965125E0,8.676796743E0,-3.343607479E0,-3.934900146E0,1.009702688E1
1.990900125E0,9.710223697E0,-2.533458209E0,-3.338986425E0,1.057618481E1
2.000836125E0,1.044976491E1,-1.970594121E0,-2.833305767E0,1.100492842E1
2.010771125E0,1.097603888E1,-1.586248450E0,-2.430975230E0,1.135338074E1
2.020707125E0,1.144985163E1,-1.418711396E0,-2.107105556E0,1.172824532E1
2.030642125E0,1.190938080E1,-1.395552621E0,-1.557143934E0,1.209155140E1
2.040578125E0,1.225264393E1,-1.210415155E0,-9.585785007E-1,1.234954497E1
2.050514125E0,1.239161003E1,-9.254727352E-1,-4.184700215E-1,1.243316597E1
2.060449125E0,1.231936066E1,-7.669702139E-1,6.328733861E-2,1.234337457E1
2.070385125E0,1.192811762E1,-7.865162864E-1,4.357473743E-1,1.196195944E1
2.080320125E0,1.132866925E1,-8.355291098E-1,7.949546957E-1,1.138722130E1
2.090256125E0,1.065426777E1,-9.541989362E-1,1.144142228E0,1.075792633E1
2.100191125E0,9.965200306E0,-1.124294440E0,1.369817855E0,1.012154416E1
2.110127125E0,9.323675380E0,-1.197868565E0,1.373106914E0,9.500064962E0
2.120063125E0,8.717805605E0,-1.204769961E0,1.513918392E0,8.929924643E0
2.129998125E0,8.178119295E0,-1.195291478E0,1.772222652E0,8.452877028E0
2.139934125E0,7.792066237E0,-1.191811362E0,2.190756993E0,8.181450162E0
2.149869125E0,7.343508198E0,-1.081704344E0,2.710193810E0,7.902047040E0
2.159805125E0,6.824775385E0,-9.428918830E-1,2.997758707E0,7.513531887E0
2.169741125E0,6.457171462E0,-8.205479586E-1,3.097568339E0,7.208556849E0
2.179676125E0,6.196199117E0,-8.133503285E-1,3.151235254E0,6.998907478E0
2.189612125E0,5.893023909E0,-9.091822462E-1,3.159642965E0,6.748161736E0
2.199547125E0,5.277326134E0,-8.920404026E-1,3.360590132E0,6.319768449E0
2.209483125E0,4.634072771E0,-9.888958754E-1,3.387606608E0,5.824811072E0
2.219419125E0,3.912584247E0,-1.233278207E0,3.182635971E0,5.192153922E0
2.229354125E0,3.418644798E0,-1.613829474E0,2.987414398E0,4.818321555E0
2.239290125E0,3.622044287E0,-2.089115574E0,2.805184168E0,5.035143187E0
2.249225125E0,3.717770224E0,-2.649783302E0,2.830522492E0,5.371687311E0
2.259161125E0,3.227218067E0,-3.246191697E0,3.502590349E0,5.763751915E0
2.269096125E0,2.501645263E0,-4.011120356E0,4.591786292E0,6.590282003E0
2.279032125E0,1.874651837E0,-4.992729285E0,5.769531884E0,7.856790909E0
2.288968125E0,1.295798537E0,-5.910347455E0,6.936725591E0,9.204860825E0
2.298903125E0,8.580151623E-1,-6.561885738E0,8.002798135E0,1.038457088E1
2.308839125E0,4.378266442E-1,-7.154074783E0,8.902880505E0,1.142951265E1
2.318774125E0,-8.590553820E-2,-7.786221360E0,9.587161442E0,1.235096301E1
2.328710125E0,-4.553408092E-1,-8.391043314E0,9.886724825E0,1.297552584E1
2.338645125E0,-6.678362274E-1,-8.811498465E0,1.000330544E1,1.334745782E1
2.348581125E0,-7.598222852E-1,-9.211803526E0,9.890778115E0,1.353743498E1
2.358517125E0,-9.991266024E-1,-9.802743605E0,9.706576788E0,1.383147386E1
2.368452125E0,-1.324130051E0,-1.055722855E1,9.513770700E0,1.427305952E1
2.378388125E0,-1.766722176E0,-1.121861998E1,9.176651820E0,1.460101641E1
2.388323125E0,-2.397320411E0,-1.147159626E1,8.935941832E0,1.473756161E1
2.398259125E0,-3.110656747E0,-1.127740555E1,8.790190626E0,1.463295980E1
2.408195125E0,-3.488973354E0,-1.118707776E1,8.755104994E0,1.462790167E1
2.418130125E0,-3.517847489E0,-1.128806502E1,8.650333414E0,1.465004884E1
2.428066125E0,-3.400999947E0,-1.150707599E1,8.300941814E0,1.459058715E1
2.438001125E0,-3.377510805E0,-1.165478251E1,7.509322954E0,1.426994974E1
2.447937125E0,-3.282413736E0,-1.153837146E1,6.289963313E0,1.354517974E1
2.457872125E0,-3.166794402E0,-1.132662975E1,4.932766088E0,1.275356066E1
2.467808125E0,-3.024530476E0,-1.105070081E1,3.581718380E0,1.200393600E1
2.477744125E0,-3.062292379E0,-1.081249928E1,2.567890708E0,1.152743848E1
2.487679125E0,-3.250168973E0,-1.058090861E1,1.971920269E0,1.124311767E1
2.497615125E0,-3.232546050E0,-1.046138216E1,1.706648467E0,1.108162983E1
2.507550125E0,-3.182162347E0,-1.051700673E1,1.157642280E0,1.104869781E1
2.517486125E0,-3.318247520E0,-1.052013031E1,2.986734366E-1,1.103508560E1
2.527422125E0,-3.407577188E0,-1.053850460E1,-5.465854400E-1,1.108920273E1
2.537357125E0,-3.266457269E0,-1.064628399E1,-1.320709430E0,1.121415976E1
2.547293125E0,-2.962618695E0,-1.077258618E1,-1.960472006E0,1.134324350E1
2.557228125E0,-2.390764805E0,-1.088100409E1,-2.439893403E0,1.140460811E1
2.567164125E0,-1.534739450E0,-1.090776913E1,-2.853159403E0,1.137872450E1
2.577100125E0,-7.195716606E-1,-1.073561073E1,-3.323739810E0,1.126136614E1
2.587035125E0,-1.207857876E-1,-1.061492069E1,-3.935424641E0,1.132160314E1
2.596971125E0,-7.463254496E-2,-1.062001712E1,-4.660468272E0,1.159785748E1
2.606906125E0,-1.390213528E-1,-1.074871902E1,-4.932317607E0,1.182717398E1
2.616842125E0,-2.522952224E-1,-1.092690590E1,-4.689179855E0,1.189324737E1
2.626777125E0,-3.015356487E-1,-1.094216128E1,-4.588368010E0,1.186907487E1
2.636713125E0,6.288972795E-2,-1.094381838E1,-4.824255799E0,1.196012374E1
2.646649125E0,8.470969489E-1,-1.086911553E1,-5.303132236E0,1.212346721E1
2.656584125E0,2.101343417E0,-1.030644498E1,-6.218765277E0,1.221930824E1
2.666520125E0,3.110014722E0,-9.442077404E0,-7.140236762E0,1.223960777E1
2.676455125E0,3.480745152E0,-8.602857531E0,-7.654279523E0,1.202966082E1
2.686391125E0,3.704686494E0,-7.918708742E0,-7.769262096E0,1.169581479E1
2.696326125E0,3.847979531E0,-7.357601157E0,-7.716062374E0,1.133485156E1
2.706262125E0,3.596907692E0,-6.917924454E0,-7.802256179E0,1.103044084E1
2.716198125E0,3.422686393E0,-6.592046846E0,-7.966514407E0,1.089197941E1
2.726133125E0,2.706380256E0,-6.466826969E0,-8.212550039E0,1.079769991E1
2.736069125E0,1.807483116E0,-6.485579574E0,-8.241202565E0,1.064176477E1
2.746004125E0,1.266471827E0,-6.545909976E0,-8.186879008E0,1.055830840E1
2.755940125E0,1.380113633E0,-6.539600245E0,-8.354530960E0,1.069903138E1
2.765876125E0,2.387012354E0,-6.224110216E0,-8.443926117E0,1.075812550E1
2.775811125E0,3.897632917E0,-5.537352984E0,-8.353501850E0,1.075336290E1
2.785747125E0,5.265189654E0,-4.827573509E0,-8.088537612E0,1.079129875E1
2.795682125E0,6.337002994E0,-4.024244724E0,-7.349458909E0,1.050555562E1
2.805618125E0,7.084731483E0,-3.088977318E0,-6.411590661E0,1.004209619E1
2.815553125E0,7.360071605E0,-2.254698050E0,-5.406209877E0,9.406456430E0
2.825489125E0,7.426490128E0,-1.647344252E0,-4.267509652E0,8.722278220E0
2.835425125E0,7.577838289E0,-1.793678425E0,-4.001353167E0,8.755098091E0
2.845360125E0,8.055756952E0,-2.264477226E0,-3.682372350E0,9.142370770E0
2.855296125E0,8.709390292E0,-2.098707200E0,-3.096914620E0,9.478867619E0
2.865231125E0,9.509798686E0,-1.613556993E0,-2.815535493E0,1.004823752E1
2.875167125E0,1.017251100E1,-9.375159529E-1,-3.073545638E0,1.066797070E1
2.885103125E0,1.082552220E1,-3.244479632E-1,-3.630509301E0,1.142268773E1
2.895038125E0,1.131395064E1,1.099805716E-1,-3.727663713E0,1.191272646E1
2.904974125E0,1.137089668E1,1.810026070E-1,-3.401584377E0,1.187016552E1
2.914909125E0,1.100418738E1,-2.176357055E-1,-2.880861756E0,1.137712044E1
2.924845125E0,1.063860425E1,-6.752697196E-1,-2.356476440E0,1.091736556E1
2.934780125E0,1.048602584E1,-9.550419585E-1,-1.720431524E0,1.066905467E1
2.944716125E0,1.038605014E1,-1.336031620E0,-1.248047251E0,1.054574037E1
2.954652125E0,1.025174545E1,-1.658195222E0,-5.682610685E-1,1.040052002E1
2.964586500E0,9.931475905E0,-1.815594812E0,3.759976012E-1,1.010306747E1
2.974522500E0,9.643101169E0,-2.109561094E0,1.666507916E0,1.001083897E1
2.984457500E0,9.408986256E0,-2.432520941E0,2.928373307E0,1.014995324E1
2.994393500E0,8.983217740E0,-2.510947013E0,4.086058856E0,1.018326730E1
3.004329500E0,8.594029990E0,-2.453122144E0,4.907510794E0,1.019601991E1
3.014264500E0,8.164006455E0,-2.407321196E0,5.458149524E0,1.011126070E1
3.024200500E0,7.696425669E0,-2.441858068E0,5.887070274E0,9.992759144E0
3.034135500E0,7.390571852E0,-2.487035995E0,6.436840693E0,1.011132130E1
3.044071500E0,7.023619308E0,-2.556100967E0,6.850708371E0,1.013888976E1
3.054006500E0,6.561809725E0,-2.928649880E0,6.998692043E0,1.003075407E1
3.063942500E0,5.794302444E0,-3.347321923E0,7.024671807E0,9.701779160E0
3.073878500E0,4.803790544E0,-3.822587120E0,7.191881125E0,9.455777599E0
3.083813500E0,3.829226341E0,-4.390498232E0,7.566256709E0,9.549224559E0
3.093749500E0,2.949199335E0,-4.855188155E0,8.004100894E0,9.815103660E0
3.103684500E0,2.556548864E0,-5.277252460E0,8.225629091E0,1.010179734E1
3.113620500E0,2.568131028E0,-5.866631917E0,8.209131757E0,1.041165267E1
3.123555500E0,2.593666404E0,-6.630714483E0,8.101796173E0,1.078575826E1
3.133491500E0,2.661172509E0,-7.536846968E0,7.838734619E0,1.119516243E1
3.143427500E0,2.494156734E0,-8.537972733E0,7.559231279E0,1.167303618E1
3.153362500E0,1.832772909E0,-9.586811194E0,7.353576518E0,1.222051934E1
3.163298500E0,8.948555446E-1,-1.063740090E1,7.189211871E0,1.287011389E1
3.173233500E0,-3.526812440E-1,-1.128495664E1,7.311049134E0,1.345087617E1
3.183169500E0,-1.557478395E0,-1.163491717E1,7.592793712E0,1.398025583E1
3.193105500E0,-2.369758390E0,-1.203114088E1,7.946557276E0,1.461204565E1
3.203040500E0,-3.111339701E0,-1.193501850E1,8.358923389E0,1.489955374E1
3.212976500E0,-3.324354937E0,-1.160928064E1,8.350922059E0,1.468211947E1
3.222911500E0,-3.302644810E0,-1.142678553E1,8.039128055E0,1.435640868E1
3.232847500E0,-3.405314316E0,-1.128400354E1,7.643852769E0,1.404825209E1
3.242782500E0,-3.670342289E0,-1.107151690E1,7.217927547E0,1.371671889E1
3.252718500E0,-3.947555274E0,-1.086364721E1,6.754378417E0,1.338744379E1
3.262654500E0,-4.077093905E0,-1.070679331E1,6.469042479E0,1.315699921E1
3.272589500E0,-4.031375695E0,-1.060584698E1,6.113534106E0,1.288841648E1
3.282525500E0,-3.880156758E0,-1.054756544E1,5.328906763E0,1.243800629E1
3.292460500E0,-3.585390431E0,-1.049984749E1,4.181890043E0,1.185706651E1
3.302396500E0,-3.046836142E0,-1.054966109E1,3.007748090E0,1.138530228E1
3.312332500E0,-2.519525171E0,-1.061189651E1,1.941933408E0,1.107842317E1
3.322267500E0,-1.975506951E0,-1.068132401E1,8.933668435E-1,1.089914743E1
3.332203500E0,-1.661723432E0,-1.083824574E1,-2.307720602E-2,1.096491806E1
3.342138500E0,-1.598191388E0,-1.089426557E1,-5.361113226E-1,1.102391280E1
3.352074500E0,-1.672523678E0,-1.084054837E1,-8.590097737E-1,1.100239620E1
3.362010500E0,-1.762936542E0,-1.091116636E1,-1.091537168E0,1.110643732E1
3.371945500E0,-1.771837613E0,-1.099742917E1,-1.331040291E0,1.121849032E1
3.381881500E0,-1.672705965E0,-1.110952380E1,-1.934729639E0,1.140011592E1
3.391816500E0,-1.442322160E0,-1.124570311E1,-2.855927474E0,1.169198244E1
3.401752500E0,-1.002684633E0,-1.118095222E1,-4.026943506E0,1.192624597E1
3.411687500E0,-4.552981246E-1,-1.094532112E1,-5.303188954E0,1.217091467E1
3.421623500E0,1.281008005E-2,-1.065476128E1,-6.030900085E0,1.224319639E1
3.431559500E0,2.660241924E-1,-1.037552165E1,-6.075762262E0,1.202651676E1
3.441494500E0,4.548176296E-1,-1.023111413E1,-5.914736375E0,1.182652366E1
3.451430500E0,8.457190526E-1,-1.013180034E1,-5.733896613E0,1.167245430E1
3.461365500E0,1.503938949E0,-9.797797446E0,-5.893356031E0,1.153214258E1
3.471301500E0,2.169774844E0,-9.204324937E0,-6.270144761E0,1.134646358E1
3.481237500E0,2.328820279E0,-8.548344525E0,-6.703948520E0,1.111037910E1
3.491172500E0,2.117731116E0,-8.121877851E0,-6.840859321E0,1.082806729E1
3.501108500E0,1.955282602E0,-7.925614303E0,-6.572196718E0,1.048008883E1
3.511043500E0,2.091907181E0,-7.717827648E0,-6.374315246E0,1.022608596E1
3.520979500E0,2.456877518E0,-7.393217717E0,-6.740155064E0,1.030172828E1
3.530914500E0,2.741304506E0,-6.926143885E0,-7.278364953E0,1.041445226E1
3.540850500E0,2.851375417E0,-6.324597541E0,-7.768086805E0,1.041508754E1
3.550786500E0,2.647057330E0,-5.708954145E0,-7.990811343E0,1.017114231E1
3.560721500E0,2.190469894E0,-5.216515092E0,-7.785315042E0,9.623997005E0
3.570657500E0,2.149789646E0,-5.081711043E0,-7.444404243E0,9.266311951E0
3.580592500E0,2.638794630E0,-5.086341453E0,-7.123164062E0,9.141858275E0
3.590528500E0,3.641428977E0,-4.826257301E0,-6.735459166E0,9.050921207E0
3.600464500E0,4.631600568E0,-4.248295702E0,-6.392780753E0,8.964785884E0
3.610399500E0,5.292535327E0,-3.385053713E0,-5.945142481E0,8.649522412E0
3.620335500E0,5.644082796E0,-2.478666290E0,-5.729883084E0,8.416116524E0
3.630270500E0,5.694730209E0,-1.978376472E0,-5.723661062E0,8.312894897E0
3.640206500E0,5.592585198E0,-1.689069398E0,-5.788181579E0,8.223929147E0
3.650141500E0,5.902936109E0,-1.570679946E0,-6.182116098E0,8.690814096E0
3.660077500E0,6.423315498E0,-1.310093518E0,-6.076433523E0,8.938588891E0
3.670013500E0,6.958338654E0,-1.212959571E0,-5.776230454E0,9.124395104E0
3.679948500E0,7.437235556E0,-1.176692216E0,-5.259909033E0,9.184972527E0
3.689884500E0,8.053697562E0,-9.816147763E-1,-4.828724826E0,9.441514467E0
3.699819500E0,8.821925805E0,-7.828524211E-1,-4.359660602E0,9.871467640E0
3.709755500E0,9.545573705E0,-5.411995697E-1,-3.821695712E0,1.029641843E1
3.719690500E0,1.017107024E1,-2.138911486E-1,-3.239316541E0,1.067659079E1
3.729626500E0,1.082415745E1,8.125524759E-2,-2.532604516E0,1.111679237E1
3.739562500E0,1.142873032E1,1.118917340E-1,-1.660115740E0,1.154921559E1
3.749497500E0,1.181994296E1,-2.928596963E-1,-5.448113948E-1,1.183611582E1
3.759433500E0,1.195260459E1,-8.241094977E-1,8.874360126E-1,1.201380271E1
3.769368500E0,1.191096306E1,-1.039278701E0,2.355392366E0,1.218601716E1
3.779304500E0,1.178902990E1,-1.035650943E0,3.541121162E0,1.235286760E1
3.789240500E0,1.139679399E1,-1.069972491E0,4.243229674E0,1.220806097E1
3.799175500E0,1.078087052E1,-1.085907176E0,4.479622663E0,1.172490438E1
3.809111500E0,1.005507786E1,-1.063785990E0,4.323996094E0,1.099696202E1
3.819046500E0,9.270092665E0,-1.054782301E0,3.878260506E0,1.010386502E1
3.828982500E0,8.520641001E0,-9.550882977E-1,3.357464211E0,9.207935852E0
3.838917500E0,7.886282423E0,-7.973595093E-1,3.062234784E0,8.497441645E0
3.848853500E0,7.170984346E0,-8.991072012E-1,2.840305468E0,7.765226680E0
3.858789500E0,6.248575552E0,-1.307659322E0,2.795020537E0,6.968989104E0
3.868724500E0,5.290869455E0,-1.662546574E0,3.109688448E0,6.358264146E0
3.878660500E0,4.753840705E0,-1.724785361E0,3.556341464E0,6.182349925E0
3.888595500E0,4.426182620E0,-1.812874395E0,4.011092289E0,6.242312673E0
3.898531500E0,4.448326026E0,-2.122444849E0,4.448133067E0,6.639146357E0
3.908467500E0,4.344711025E0,-2.766623827E0,4.759706047E0,7.013239119E0
3.918402500E0,3.451429551E0,-3.665575638E0,5.355065451E0,7.350206575E0
3.928338500E0,2.290389454E0,-4.728784508E0,6.186762296E0,8.116853731E0
3.938273500E0,1.424041425E0,-5.759635472E0,6.976959112E0,9.158561743E0
3.948209500E0,9.544281471E-1,-6.570163057E0,7.752672375E0,1.020695374E1
3.958144500E0,4.532615393E-1,-7.040641723E0,8.505482095E0,1.105076050E1
3.968080375E0,-8.294509292E-2,-7.394125789E0,9.085899525E0,1.171467226E1
3.978016375E0,-6.208608663E-1,-7.733081279E0,9.441552324E0,1.222002146E1
3.987951375E0,-1.093614099E0,-8.177150996E0,9.467861286E0,1.255795316E1
3.997887375E0,-1.287741659E0,-8.985928509E0,8.935671106E0,1.273779447E1
4.007822375E0,-1.462892665E0,-9.422294519E0,8.595129851E0,1.283728733E1
4.017758375E0,-1.326512792E0,-9.453587648E0,8.437708772E0,1.274067835E1
4.027694375E0,-9.400071591E-1,-9.660500729E0,8.385825258E0,1.282696196E1
4.037629375E0,-5.613894206E-1,-9.911928663E0,8.720860190E0,1.321419276E1
4.047565375E0,-4.171701854E-1,-9.989470929E0,9.165153855E0,1.356331838E1
4.057500375E0,-4.318975675E-1,-1.005494571E1,9.367271050E0,1.374897217E1
4.067436375E0,-3.939438754E-1,-1.030081645E1,9.188982428E0,1.380939569E1
4.077371375E0,-7.247208649E-1,-1.065171722E1,8.566970830E0,1.368858244E1
4.087307375E0,-1.418103577E0,-1.083965725E1,7.805602541E0,1.343266981E1
4.097243375E0,-2.027924608E0,-1.083971573E1,6.974830726E0,1.304837840E1
4.107178375E0,-2.256585531E0,-1.069894050E1,6.241942470E0,1.259052628E1
4.117114375E0,-2.182634918E0,-1.053583359E1,5.452956612E0,1.206243841E1
4.127049375E0,-1.989083601E0,-1.041589550E1,4.721620207E0,1.160780040E1
4.136985375E0,-1.853284064E0,-1.028751287E1,3.940219358E0,1.117107476E1
4.146921375E0,-1.803307912E0,-1.025536487E1,2.999703491E0,1.083617318E1
4.156856375E0,-1.874192246E0,-1.036788986E1,2.038439364E0,1.073130802E1
4.166792375E0,-1.998689992E0,-1.041018862E1,1.111074470E0,1.065838990E1
4.176727375E0,-2.152543977E0,-1.033812636E1,4.750745773E-1,1.057052497E1
4.186663375E0,-2.324471705E0,-1.048115978E1,2.619026363E-1,1.073901635E1
4.196599375E0,-2.678972895E0,-1.089081688E1,-5.710975528E-2,1.121561633E1
4.206534375E0,-2.941451190E0,-1.127946961E1,-7.932987642E-1,1.168365922E1
4.216470375E0,-2.913300939E0,-1.149612182E1,-1.427954382E0,1.194517446E1
4.226405375E0,-2.695077296E0,-1.158279276E1,-2.007795276E0,1.206050461E1
4.236341375E0,-2.409985041E0,-1.154363746E1,-2.676058350E0,1.209234808E1
4.246276375E0,-2.015824234E0,-1.145745769E1,-3.116715047E0,1.204370361E1
4.256212375E0,-1.405798697E0,-1.133268746E1,-3.683350589E0,1.199888106E1
4.266148375E0,-8.516881827E-1,-1.120290851E1,-4.099893953E0,1.195991899E1
4.276083375E0,-5.507793555E-1,-1.112808403E1,-4.044933342E0,1.185323153E1
4.286019375E0,-3.056091115E-1,-1.114462697E1,-3.950736452E0,1.182812013E1
4.295954375E0,-2.571254611E-2,-1.119339509E1,-4.233753384E0,1.196734818E1
4.305890375E0,3.707555723E-1,-1.116090094E1,-4.613335621E0,1.208246809E1
4.315826375E0,1.148617103E0,-1.071407777E1,-5.122029934E0,1.193088322E1
4.325761375E0,1.756374651E0,-9.753895966E0,-6.005903823E0,1.158853827E1
4.335697375E0,1.770385457E0,-8.939124472E0,-6.856358535E0,1.140402838E1
4.345632375E0,1.528312483E0,-8.479354981E0,-7.236510583E0,1.125176810E1
4.355568375E0,1.009810050E0,-8.306527074E0,-7.029884015E0,1.092874090E1
4.365503375E0,9.984015477E-1,-8.242777805E0,-6.658552492E0,1.064314394E1
4.375439375E0,1.387022703E0,-7.848800601E0,-6.617285183E0,1.035934197E1
4.385375375E0,1.281730136E0,-7.429226040E0,-6.723855366E0,1.010180492E1
4.395310375E0,1.225731352E0,-6.945026298E0,-7.155118511E0,1.004646846E1
4.405246375E0,9.297768706E-1,-6.692563992E0,-7.902085108E0,1.039701144E1
4.415181375E0,7.163628548E-1,-6.935388917E0,-8.391084244E0,1.090977039E1
4.425117375E0,1.329223561E0,-7.299168177E0,-8.318266529E0,1.114622131E1
4.435053375E0,2.734167395E0,-7.247403946E0,-7.990066992E0,1.112841884E1
4.444988375E0,4.535579932E0,-6.753907131E0,-7.333287849E0,1.095280136E1
4.454924375E0,6.385222058E0,-5.596174804E0,-6.497931232E0,1.069164830E1
4.464859375E0,7.933495765E0,-3.908861910E0,-5.642536207E0,1.049084226E1
4.474795375E0,8.545644865E0,-2.291500718E0,-4.833870960E0,1.008193087E1
4.484730375E0,8.504607936E0,-1.578981238E0,-4.324106022E0,9.670544493E0
4.494666375E0,8.620799713E0,-1.574220142E0,-3.830157802E0,9.563810199E0
4.504602375E0,9.138414538E0,-1.667344068E0,-3.728877595E0,1.000975447E1
4.514537375E0,9.875251418E0,-1.693055153E0,-3.990270354E0,1.078467820E1
4.524473375E0,1.049248935E1,-1.597145613E0,-4.256302294E0,1.143500398E1
4.534408375E0,1.070066543E1,-1.293400009E0,-4.594652013E0,1.171699413E1
4.544344375E0,1.087512413E1,-1.103598220E0,-4.750420083E0,1.191858820E1
4.554280375E0,1.088654023E1,-1.100865816E0,-4.401574613E0,1.179417326E1
4.564215375E0,1.080576913E1,-1.139448376E0,-3.454083602E0,1.140147721E1
4.574151375E0,1.086777067E1,-1.143466583E0,-2.212757142E0,1.114954032E1
4.584086375E0,1.092395072E1,-1.026278587E0,-8.981960589E-1,1.100875575E1
4.594022375E0,1.082465330E1,-9.250986595E-1,3.458978891E-1,1.086961692E1
4.603957375E0,1.069485914E1,-9.686864363E-1,1.329441662E0,1.082061831E1
4.613893375E0,1.018065149E1,-1.096874653E0,1.875179256E0,1.040985572E1
4.623829375E0,9.412096975E0,-1.182508588E0,1.550693870E0,9.612000182E0
4.633764375E0,9.130598565E0,-9.798591498E-1,1.142773980E0,9.253857924E0
4.643700375E0,9.208597498E0,-4.057950121E-1,1.274135773E0,9.305179173E0
4.653635375E0,8.991214392E0,-1.535825278E-1,1.768607318E0,9.164796544E0
4.663571375E0,8.475178315E0,-1.495384473E-1,2.466483032E0,8.828054585E0
4.673507375E0,7.767780996E0,-3.204608931E-1,3.364101385E0,8.471026792E0
4.683442375E0,6.950815626E0,-4.948941533E-1,4.109467599E0,8.089900002E0
4.693378375E0,6.188436939E0,-6.586318329E-1,4.527131290E0,7.695808297E0
4.703313375E0,5.622254555E0,-9.017271924E-1,4.724371322E0,7.398820352E0
4.713249375E0,4.820904175E0,-1.332027739E0,4.816483095E0,6.943624728E0
4.723184375E0,3.940335132E0,-1.672499997E0,4.941742734E0,6.537913921E0
4.733120375E0,3.444343311E0,-1.881675951E0,4.942730913E0,6.311481134E0
4.743056375E0,3.103581031E0,-2.084435024E0,4.949112564E0,6.202483354E0
4.752991375E0,3.018066087E0,-2.212161603E0,5.051078650E0,6.286157601E0
4.762927375E0,2.907781752E0,-2.394095379E0,5.383296978E0,6.570142598E0
4.772862375E0,2.444776998E0,-2.916538543E0,5.864238067E0,6.990881185E0
4.782798375E0,1.711726189E0,-3.567004446E0,6.593947191E0,7.689841795E0
4.792734375E0,9.581598401E-1,-4.194169196E0,7.435124711E0,8.590122525E0
4.802669375E0,4.866842240E-1,-4.973407745E0,7.844390046E0,9.300865623E0
4.812605375E0,1.856724858E-2,-5.705106093E0,7.865107901E0,9.716403787E0
4.822540375E0,-8.083307862E-2,-6.224088582E0,7.738677649E0,9.931412006E0
4.832476375E0,1.508739513E-1,-6.919488584E0,7.496399438E0,1.020284714E1
4.842411375E0,1.828307390E-2,-7.596250001E0,7.463791271E0,1.064948489E1
4.852347375E0,-4.262047184E-1,-8.070552746E0,7.644245701E0,1.112429613E1
4.862283375E0,-8.219448584E-1,-8.587680498E0,8.032638815E0,1.178758398E1
4.872218375E0,-1.197171797E0,-9.043873247E0,8.707211620E0,1.261112199E1
4.882154375E0,-1.543853213E0,-9.242586193E0,9.540067967E0,1.337242607E1
4.892089375E0,-1.780915123E0,-9.454761769E0,1.013735520E1,1.397605628E1
4.902025375E0,-2.034056291E0,-9.930135723E0,1.033912156E1,1.447903364E1
4.911961375E0,-2.444379387E0,-1.012799498E1,1.034829233E1,1.468463234E1
4.921896375E0,-2.663718971E0,-1.015445714E1,9.906963208E0,1.443455294E1
4.931832375E0,-2.740421576E0,-1.015476821E1,8.976343753E0,1.382765255E1
4.941767375E0,-2.490847210E0,-1.021299829E1,7.724619774E0,1.304528285E1
4.951703375E0,-2.137621590E0,-1.025224129E1,6.296454307E0,1.221978782E1
4.961639375E0,-1.697297892E0,-1.011785590E1,5.091261300E0,1.145306814E1
4.971575000E0,-1.388826276E0,-9.910144093E0,4.128705524E0,1.082524843E1
4.981511000E0,-1.242420475E0,-9.673075166E0,3.291537439E0,1.029301756E1
4.991446000E0,-1.169312738E0,-9.414989008E0,2.657578225E0,9.852514010E0
5.001382000E0,-1.121866676E0,-9.292417334E0,2.019686759E0,9.575319282E0
5.011317000E0,-1.130396886E0,-9.437596098E0,1.173092963E0,9.577168909E0
5.021253000E0,-1.293253244E0,-9.665828127E0,3.708701777E-1,9.759010300E0
5.031189000E0,-1.564819866E0,-9.882996640E0,-8.611603796E-2,1.000648289E1
5.041124000E0,-1.868104709E0,-1.010864303E1,-1.734050274E-1,1.028127173E1
5.051060000E0,-2.168260123E0,-1.031152270E1,-2.822433454E-1,1.054080233E1
5.060995000E0,-2.272294368E0,-1.051023448E1,-6.170490664E-1,1.077075207E1
5.070931000E0,-2.049142984E0,-1.066278366E1,-1.220309229E0,1.092625722E1
5.080867000E0,-1.665804789E0,-1.056694078E1,-2.058620444E0,1.089371659E1
5.090802000E0,-1.257494304E0,-1.029589894E1,-3.164322492E0,1.084434248E1
5.100738000E0,-8.567787686E-1,-1.016073938E1,-4.020513908E0,1.096080411E1
5.110673000E0,-4.818222642E-1,-1.001025544E1,-4.628336945E0,1.103897049E1
5.120609000E0,-3.732011703E-1,-9.742524301E0,-5.211018124E0,1.105489795E1
5.130544000E0,-3.568096706E-1,-9.408231965E0,-5.505916598E0,1.090675293E1
5.140480000E0,-6.390980396E-1,-9.165291849E0,-5.483949194E0,1.069975326E1
5.150416000E0,-9.836086768E-1,-9.242221912E0,-5.242562099E0,1.067101725E1
5.160351000E0,-9.952630547E-1,-9.611657767E0,-5.000819492E0,1.088038185E1
5.170287000E0,-6.761340111E-1,-9.733520173E0,-4.873498710E0,1.090640004E1
5.180222000E0,-6.981458545E-2,-9.164175031E0,-4.795843593E0,1.034345657E1
5.190158000E0,2.912550741E-1,-8.549211667E0,-5.119126207E0,9.968916830E0
5.200094000E0,7.609484589E-1,-8.190689054E0,-6.065609157E0,1.022047182E1
5.210029000E0,1.336546614E0,-7.599277105E0,-7.351521807E0,1.065740317E1
5.219965000E0,1.366118907E0,-7.061950146E0,-8.429093485E0,1.108093127E1
5.229900000E0,1.428240311E0,-6.808292668E0,-8.685749999E0,1.112811630E1
5.239836000E0,1.892692251E0,-6.521342899E0,-8.338306106E0,1.075348994E1
5.249772000E0,2.653940672E0,-5.991030260E0,-7.908241056E0,1.027015683E1
5.259707000E0,3.180392979E0,-5.436547571E0,-7.629713032E0,9.893607529E0
5.269643000E0,3.472794108E0,-4.895802622E0,-7.442109210E0,9.561075867E0
5.279578000E0,3.761825486E0,-4.327268489E0,-7.257199202E0,9.248974203E0
5.289514000E0,4.468507690E0,-3.866817798E0,-7.312612680E0,9.401816051E0
5.299449000E0,5.256859710E0,-3.908238012E0,-7.378379238E0,9.866578867E0
5.309385000E0,6.533279405E0,-3.769225137E0,-6.915488504E0,1.023302395E1
5.319321000E0,8.252275438E0,-3.103863744E0,-6.162618558E0,1.075694601E1
5.329256000E0,1.005819559E1,-2.040100558E0,-5.393747122E0,1.159404230E1
5.339192000E0,1.109976830E1,-9.730176151E-1,-4.781406233E0,1.212491094E1
5.349127000E0,1.121898134E1,-2.142188850E-1,-4.340012788E0,1.203109068E1
5.359063000E0,1.085723515E1,7.248793244E-2,-4.264541606E0,1.166495284E1
5.368999000E0,1.023802086E1,1.333983779E-2,-4.671329475E0,1.125338030E1
5.378934000E0,9.672796839E0,-2.209814823E-1,-5.138427866E0,1.095514822E1
5.388870000E0,9.326768557E0,-5.350529766E-1,-5.451915808E0,1.081657429E1
5.398805000E0,9.400644034E0,-7.016775727E-1,-5.217002165E0,1.077411580E1
5.408741000E0,1.015555641E1,-8.039436203E-1,-4.596229007E0,1.117617880E1
5.418677000E0,1.048962538E1,-1.283359171E0,-4.020383515E0,1.130675617E1
5.428612000E0,1.035329989E1,-1.685775369E0,-3.036204150E0,1.092021945E1
5.438548000E0,9.946659955E0,-1.967343653E0,-1.660214558E0,1.027437578E1
5.448483000E0,1.041214744E1,-1.817229840E0,-4.043875873E-1,1.057727129E1
5.458419000E0,1.090002040E1,-1.108863930E0,1.023967913E0,1.100402355E1
5.468354000E0,1.043462413E1,-5.796856508E-1,2.627006058E0,1.077583301E1
5.478290000E0,9.689117002E0,-4.307099980E-1,3.570891091E0,1.033517114E1
5.488226000E0,8.956473745E0,-4.393347873E-1,3.564487220E0,9.649715340E0
5.498161000E0,7.958941094E0,-7.270300765E-1,2.687582628E0,8.431869096E0
5.508097000E0,6.928665789E0,-1.232506521E0,1.490652321E0,7.193575347E0
5.518032000E0,5.911764820E0,-1.642036880E0,8.522112161E-1,6.194474341E0
5.527968000E0,5.069353538E0,-2.010484995E0,8.503003460E-1,5.519366439E0
5.537904000E0,4.526177024E0,-2.232533594E0,1.569373385E0,5.285207425E0
5.547839000E0,4.221613687E0,-2.403984921E0,2.812626504E0,5.613558005E0
5.557775000E0,4.166660970E0,-2.895835891E0,4.247256067E0,6.617107619E0
5.567710000E0,3.877047794E0,-3.807870555E0,5.809457257E0,7.954946347E0
5.577646000E0,3.245060261E0,-4.783999473E0,7.508389154E0,9.475915510E0
5.587581000E0,2.458306870E0,-5.540470719E0,9.310296366E0,1.110953225E1
5.597517000E0,1.730219178E0,-5.985005289E0,1.084464844E1,1.250681200E1
5.607453000E0,1.509564555E0,-6.275734114E0,1.181370281E1,1.346206514E1
5.617388000E0,1.720833228E0,-6.511630674E0,1.212498518E1,1.387003485E1
5.627324000E0,1.973405462E0,-6.640581660E0,1.187750061E1,1.375015180E1
5.637259000E0,2.224508291E0,-6.959482954E0,1.136253048E1,1.350888371E1
5.647195000E0,2.212630257E0,-7.479568813E0,1.068749282E1,1.323110672E1
5.657131000E0,1.755891963E0,-8.092569852E0,1.019200211E1,1.313201243E1
5.667066000E0,9.750974697E-1,-8.568437896E0,1.000750725E1,1.321056942E1
5.677002000E0,6.085606635E-2,-9.020908307E0,1.022615219E1,1.363652004E1
5.686937000E0,-7.666366303E-1,-9.339109690E0,1.082255766E1,1.431553198E1
5.696873000E0,-1.372000621E0,-9.456466817E0,1.157344540E1,1.500839061E1
5.706809000E0,-1.750076907E0,-9.611158415E0,1.199518167E1,1.547001999E1
5.716744000E0,-1.946046340E0,-9.876055995E0,1.195874884E1,1.563122683E1
5.726680000E0,-2.184939598E0,-9.939891218E0,1.145752785E1,1.532482767E1
5.736615000E0,-2.288938175E0,-9.946158264E0,1.041915474E1,1.458506386E1
5.746551000E0,-2.219382037E0,-9.879289505E0,9.004498681E0,1.355016658E1
5.756486000E0,-2.212402800E0,-9.745598767E0,7.452407911E0,1.246634690E1
5.766422000E0,-2.254303948E0,-9.560266004E0,5.828455446E0,1.142153515E1
5.776358000E0,-2.302254624E0,-9.368655671E0,4.459316452E0,1.062815076E1
5.786293000E0,-2.535656177E0,-9.119547327E0,3.618448250E0,1.013355137E1
5.796229000E0,-2.648475865E0,-8.872988369E0,3.183093224E0,9.791651009E0
5.806164000E0,-2.526318174E0,-8.846086500E0,2.842561909E0,9.628898591E0
5.816100000E0,-2.419554448E0,-8.970892394E0,2.452897611E0,9.609779434E0
5.826036000E0,-2.357435676E0,-9.166446674E0,1.801079831E0,9.634580227E0
5.835971000E0,-2.329977736E0,-9.294221200E0,9.143998629E-1,9.625355634E0
5.845907000E0,-2.366833905E0,-9.335127152E0,3.462317652E-1,9.636720298E0
5.855842000E0,-2.408006490E0,-9.353772753E0,6.993971586E-2,9.659008828E0
5.865778000E0,-2.426551519E0,-9.365256684E0,-2.425691101E-1,9.677552625E0
5.875714000E0,-2.265000844E0,-9.437072187E0,-8.060211360E-1,9.738492202E0
5.885649000E0,-2.012786459E0,-9.427548242E0,-1.599534785E0,9.771821054E0
5.895585000E0,-1.898582736E0,-9.235330383E0,-2.384057171E0,9.725208085E0
5.905520000E0,-1.925179089E0,-9.015589095E0,-3.053692587E0,9.711446837E0
5.915456000E0,-2.024529130E0,-9.073139731E0,-3.414309964E0,9.903438560E0
5.925392000E0,-2.312216233E0,-9.225097756E0,-3.420127067E0,1.010673249E1
5.935327000E0,-2.476205197E0,-9.361978151E0,-3.259010256E0,1.021760123E1
5.945263000E0,-2.143331981E0,-9.407661277E0,-3.244094886E0,1.017949480E1
5.955198000E0,-1.496720561E0,-9.110666576E0,-3.489623272E0,9.870252706E0
5.965133750E0,-7.030923066E-1,-8.513205682E0,-3.817004490E0,9.356202919E0
5.975068750E0,1.683290595E-1,-7.800265787E0,-4.151074047E0,8.837640905E0
5.985004750E0,7.224211550E-1,-7.286684371E0,-4.533312966E0,8.612118665E0
5.994940750E0,9.005554104E-1,-6.936364233E0,-4.725717059E0,8.441359520E0
6.004875750E0,7.602193111E-1,-6.663036137E0,-4.637947429E0,8.153805266E0
6.014811750E0,6.056265306E-1,-6.516144140E0,-4.486235571E0,7.934306998E0
6.024746750E0,4.157487273E-1,-6.572678529E0,-4.324647474E0,7.878802309E0
6.034682750E0,6.884043932E-2,-6.821148357E0,-4.243620268E0,8.033748620E0
6.044618750E0,-1.413622856E-1,-7.147645769E0,-4.381447327E0,8.384861598E0
6.054553750E0,5.593972743E-2,-7.028085997E0,-4.947279462E0,8.594922693E0
6.064489750E0,6.301152545E-1,-6.295709957E0,-5.732151804E0,8.537597636E0
6.074424750E0,1.394306579E0,-5.311620639E0,-6.510722601E0,8.517447590E0
6.084360750E0,1.801688526E0,-4.413550295E0,-7.030831264E0,8.494592163E0
6.094296750E0,1.869693398E0,-3.997932546E0,-7.138200177E0,8.392444209E0
6.104231750E0,1.835996479E0,-3.996825083E0,-6.962643959E0,8.235526984E0
6.114167750E0,2.157855880E0,-4.094830264E0,-6.779888064E0,8.209193569E0
6.124102750E0,2.766416543E0,-4.096716576E0,-6.591298403E0,8.239014615E0
6.134038750E0,3.330236067E0,-3.917557304E0,-6.562242419E0,8.336711165E0
6.143973750E0,4.030954111E0,-3.606415265E0,-6.461843387E0,8.426757506E0
6.153909750E0,4.809412642E0,-3.159955207E0,-6.220576744E0,8.474157297E0
6.163845750E0,5.443975874E0,-2.673518320E0,-5.741619031E0,8.351692201E0
6.173780750E0,6.139187011E0,-2.117370343E0,-5.130510736E0,8.276171502E0
6.183716750E0,7.031844002E0,-1.777797387E0,-4.638506715E0,8.609479552E0
6.193651750E0,8.220859517E0,-1.352890458E0,-4.317910897E0,9.383879705E0
6.203587750E0,9.145101998E0,-6.325498158E-1,-4.415616701E0,1.017500274E1
6.213523750E0,9.512542784E0,-3.130608031E-1,-4.907823036E0,1.070855752E1
6.223458750E0,9.630780501E0,-6.430747309E-1,-5.297852785E0,1.101057321E1
6.233394750E0,9.478062923E0,-1.059312285E0,-5.132318695E0,1.083035154E1
6.243329750E0,9.168716564E0,-1.308323858E0,-4.578505511E0,1.033149493E1
6.253265750E0,8.994436793E0,-1.590566034E0,-3.676749668E0,9.846231850E0
6.263200750E0,9.118988918E0,-1.874309190E0,-2.463363542E0,9.630013176E0
6.273136750E0,9.258456121E0,-1.891320787E0,-1.023218885E0,9.504897735E0
6.283072750E0,9.429522262E0,-1.749874447E0,3.125623280E-1,9.595605551E0
6.293007750E0,9.632122437E0,-1.491630706E0,1.550145109E0,9.869432338E0
6.302943750E0,9.576904256E0,-1.172925001E0,2.392730639E0,9.940724727E0
6.312878750E0,9.238511268E0,-8.551552892E-1,2.601916240E0,9.635940491E0
6.322814750E0,8.846680577E0,-4.240608367E-1,2.191517715E0,9.123942937E0
6.332750750E0,8.605399901E0,-1.570310694E-1,1.754393322E0,8.783818198E0
6.342685750E0,8.075765539E0,-1.334276140E-2,1.585356749E0,8.229916348E0
6.352621750E0,7.207618906E0,-4.521052524E-2,1.580076421E0,7.378919689E0
6.362556750E0,6.393387694E0,-1.700079413E-1,1.715333629E0,6.621682442E0
6.372492750E0,6.023196378E0,-2.115888074E-1,1.746499581E0,6.274864558E0
6.382428750E0,6.066010276E0,-6.220180303E-2,1.776426215E0,6.321079009E0
6.392363750E0,6.029406121E0,5.200396657E-2,2.157134333E0,6.403879381E0
6.402299750E0,5.886151092E0,1.330935918E-2,2.986696652E0,6.600553667E0
6.412234750E0,5.582765384E0,-2.133057692E-1,4.135321940E0,6.950802561E0
6.422170750E0,5.257281294E0,-7.313695145E-1,5.207648374E0,7.435960568E0
6.432105750E0,4.988756102E0,-1.660285310E0,5.992629474E0,7.972191842E0
6.442041750E0,4.414074790E0,-2.420878842E0,6.827791963E0,8.483127591E0
6.451977750E0,3.761363556E0,-2.845960018E0,7.640628029E0,8.979228302E0
6.461912750E0,3.255865331E0,-3.391116107E0,8.052291307E0,9.324147296E0
6.471848750E0,2.806384016E0,-4.051946785E0,8.206767143E0,9.573144255E0
6.481783750E0,2.545733854E0,-4.570080258E0,8.108160868E0,9.649283242E0
6.491719750E0,2.504143193E0,-4.979870088E0,7.999613156E0,9.750058968E0
6.501655750E0,2.280428138E0,-5.582794620E0,7.967670987E0,9.992583711E0
6.511590750E0,2.019430650E0,-6.306823760E0,7.979316301E0,1.036935942E1
6.521526750E0,1.870637138E0,-7.189583754E0,7.925893800E0,1.086320351E1
6.531461750E0,1.474182469E0,-8.030008737E0,8.059817258E0,1.147235410E1
6.541397750E0,7.951757205E-1,-8.685928924E0,8.715218797E0,1.233015427E1
6.551333750E0,2.534171569E-1,-9.332717514E0,9.683813578E0,1.345139702E1
6.561268750E0,-3.908986455E-1,-9.962100112E0,1.054424072E1,1.451128019E1
6.571204750E0,-1.270504067E0,-1.030119769E1,1.091786493E1,1.506415046E1
6.581139750E0,-1.913551608E0,-1.030236947E1,1.083186759E1,1.507082785E1
6.591075750E0,-2.259771679E0,-1.010595565E1,1.039842402E1,1.467528977E1
6.601011750E0,-2.408047128E0,-9.928379220E0,9.602493426E0,1.402067348E1
6.610946750E0,-2.364815739E0,-9.805083076E0,8.403844623E0,1.312846572E1
6.620882750E0,-2.316734084E0,-9.887562146E0,7.015689315E0,1.234305629E1
6.630817750E0,-2.338104781E0,-9.741701598E0,6.009037930E0,1.168229519E1
6.640753750E0,-2.600645933E0,-9.593479943E0,5.225947820E0,1.122981511E1
6.650688750E0,-2.790720203E0,-9.651165065E0,4.430331804E0,1.098002487E1
6.660624750E0,-2.799986870E0,-9.709377020E0,3.739632379E0,1.077482153E1
6.670560750E0,-2.808464748E0,-9.840120177E0,2.951622421E0,1.065023541E1
6.680495750E0,-2.722468286E0,-9.975829375E0,2.097143070E0,1.055116175E1
6.690431750E0,-2.536254348E0,-1.008845026E1,1.423075465E0,1.049926466E1
6.700366750E0,-2.346870342E0,-1.008585175E1,7.899512333E-1,1.038538535E1
6.710302750E0,-2.120060647E0,-9.957581384E0,3.473895139E-1,1.018669542E1
6.720238750E0,-2.111610543E0,-9.848699212E0,-3.073647380E-2,1.007257266E1
6.730173750E0,-1.975287096E0,-9.776511242E0,-5.809080112E-1,9.990965183E0
6.740109750E0,-1.874917885E0,-9.598395113E0,-1.203934101E0,9.853626903E0
6.750044750E0,-1.910615721E0,-9.474993135E0,-1.760531437E0,9.824735023E0
6.759980750E0,-2.128808666E0,-9.476315775E0,-2.319498648E0,9.985612699E0
6.769916750E0,-2.381701913E0,-9.592021063E0,-2.873066248E0,1.029241865E1
6.779851750E0,-2.377906778E0,-9.489964346E0,-3.427470293E0,1.036635985E1
6.789787750E0,-2.053335146E0,-9.054485943E0,-3.853585256E0,1.005236391E1
6.799722750E0,-1.656044324E0,-8.548236936E0,-4.064242310E0,9.609001148E0
6.809658750E0,-1.094468670E0,-8.343756881E0,-4.057851596E0,9.342499672E0
6.819594750E0,-5.623349154E-1,-8.298300042E0,-3.874532906E0,9.175511396E0
6.829529750E0,-5.411773503E-2,-8.089803534E0,-3.580401295E0,8.846870824E0
6.839465750E0,4.628059494E-1,-7.685493715E0,-3.405955170E0,8.419117151E0
6.849400750E0,6.961104387E-1,-7.307022157E0,-3.592676354E0,8.172176328E0
6.859336750E0,8.762456113E-1,-7.037435694E0,-4.156392090E0,8.220030579E0
6.869271750E0,1.104933724E0,-6.639626225E0,-4.737792729E0,8.231172145E0
6.879207750E0,1.169646614E0,-6.227990429E0,-5.056065155E0,8.106770802E0
6.889143750E0,8.420201039E-1,-6.030724084E0,-5.228176194E0,8.025737171E0
6.899078750E0,4.856761640E-1,-5.984198374E0,-5.514907862E0,8.152344463E0
6.909014750E0,3.314587748E-1,-6.141739905E0,-5.912023267E0,8.531286719E0
6.918949750E0,7.053899699E-1,-5.998519959E0,-6.405777944E0,8.804192625E0
6.928885750E0,1.098923956E0,-5.167030106E0,-6.990998862E0,8.762413997E0
6.938821750E0,9.597613925E-1,-4.696537406E0,-7.688515556E0,9.060456776E0
6.948756750E0,8.928008330E-1,-5.003064238E0,-8.039163723E0,9.510830588E0
6.958692750E0,1.464129936E0,-5.348352263E0,-7.832315546E0,9.596547046E0
6.968628125E0,2.275473207E0,-5.396178979E0,-7.389836857E0,9.429009209E0
6.978564125E0,3.037567720E0,-5.257726268E0,-6.788976976E0,9.108277090E0
6.988500125E0,3.826540715E0,-4.701845509E0,-6.163536571E0,8.645169061E0
6.998435125E0,4.797367378E0,-3.668676125E0,-5.622894825E0,8.251718880E0
7.008371125E0,5.480245568E0,-2.715835789E0,-5.185885037E0,8.018868943E0
7.018306125E0,5.662282255E0,-2.459442984E0,-4.769824069E0,7.801379479E0
7.028242125E0,5.601184698E0,-2.579928371E0,-4.185165069E0,7.452845569E0
7.038178125E0,5.768756543E0,-2.748746550E0,-3.930814696E0,7.502363883E0
7.048113125E0,6.766384504E0,-2.756646138E0,-3.916464459E0,8.289858325E0
7.058049125E0,7.879447612E0,-2.525178259E0,-4.070708746E0,9.221327974E0
7.067984125E0,8.720988244E0,-2.069493341E0,-4.441287440E0,1.000317314E1
7.077920125E0,9.399730114E0,-1.646371568E0,-4.919351406E0,1.073617641E1
7.087855125E0,9.764132102E0,-1.502676828E0,-4.936898316E0,1.104397022E1
7.097791125E0,9.825220302E0,-1.473675515E0,-4.432180109E0,1.087891971E1
7.107727125E0,9.949507549E0,-1.505575000E0,-3.406143451E0,1.062361849E1
7.117662125E0,1.035511019E1,-1.466518523E0,-1.895228773E0,1.062877583E1
7.127598125E0,1.049978200E1,-1.544534413E0,-3.203841484E-1,1.061761059E1
7.137533125E0,1.038298854E1,-1.653672986E0,7.985975111E-1,1.054413787E1
7.147469125E0,9.919450521E0,-1.756188125E0,1.378365315E0,1.016757524E1
7.157405125E0,9.323930318E0,-1.837175570E0,1.273154610E0,9.588107911E0
7.167340125E0,8.665797545E0,-1.659825134E0,7.413497615E-1,8.854415059E0
7.177276125E0,8.433808680E0,-1.197983975E0,2.741993308E-2,8.518511977E0
7.187211125E0,8.485634306E0,-8.078904909E-1,-2.809318149E-1,8.528634082E0
7.197147125E0,8.435205579E0,-5.834712844E-1,2.903639585E-2,8.455410991E0
7.207083125E0,8.069973872E0,-3.594748315E-1,7.563654113E-1,8.113309379E0
7.217018125E0,7.531383914E0,-3.422166283E-1,1.638463501E0,7.715142159E0
7.226954125E0,6.957606583E0,-4.670729551E-1,2.478455790E0,7.400620893E0
7.236889125E0,6.364912339E0,-6.599632439E-1,3.116443151E0,7.117575323E0
7.246825125E0,5.858027739E0,-8.416967529E-1,3.865253083E0,7.068601262E0
7.256761125E0,5.538546401E0,-9.859155495E-1,4.885399841E0,7.450815882E0
7.266696125E0,5.093894302E0,-1.167399236E0,5.848747623E0,7.843368466E0
7.276632125E0,4.604206948E0,-1.409440050E0,6.676931460E0,8.232050571E0
7.286567125E0,4.209225191E0,-1.798065591E0,7.363721437E0,8.670352357E0
7.296503125E0,4.009526989E0,-2.151867892E0,7.743549550E0,8.981614651E0
7.306438125E0,4.241693026E0,-2.610389733E0,7.948851138E0,9.380316024E0
7.316374125E0,4.304528959E0,-3.048589430E0,8.143975648E0,9.702948337E0
7.326310125E0,3.952051783E0,-3.456937336E0,7.915037275E0,9.498260057E0
7.336245125E0,3.229737632E0,-4.129522380E0,7.582969805E0,9.218763004E0
7.346181125E0,2.600497121E0,-5.065656343E0,7.634347535E0,9.524007651E0
7.356116125E0,2.100343251E0,-6.148164825E0,8.001122323E0,1.030676142E1
7.366052125E0,1.824251761E0,-7.103884622E0,8.310109663E0,1.108381675E1
7.375988125E0,1.698550658E0,-7.961423821E0,8.463321916E0,1.174296221E1
7.385923125E0,1.372813384E0,-8.924504094E0,8.779739898E0,1.259425355E1
7.395859125E0,6.970986181E-1,-9.589127861E0,9.411475416E0,1.345411421E1
7.405794125E0,4.470430255E-2,-9.602266554E0,1.014407014E1,1.396809509E1
7.415730125E0,-4.705236894E-1,-9.359896542E0,1.077673303E1,1.428170265E1
7.425666125E0,-8.902742511E-1,-9.183338111E0,1.104073598E1,1.438833340E1
7.435601125E0,-1.044434338E0,-9.134201034E0,1.084593132E1,1.421825227E1
7.445537125E0,-1.254868612E0,-9.142746740E0,1.018445686E1,1.374364125E1
7.455472125E0,-1.358308196E0,-9.246307361E0,9.160446846E0,1.308636647E1
7.465408125E0,-1.488000609E0,-9.253918682E0,8.177988902E0,1.243899752E1
7.475344125E0,-1.645811112E0,-9.034601902E0,7.495338753E0,1.185381073E1
7.485279125E0,-1.566512343E0,-8.941687891E0,6.804736392E0,1.134513907E1
7.495215125E0,-1.511841461E0,-8.930209807E0,6.072808249E0,1.090473804E1
7.505150125E0,-1.580829250E0,-8.858863251E0,5.289228727E0,1.043812338E1
7.515086125E0,-1.703213228E0,-8.810844746E0,4.322824897E0,9.960860180E0
7.525022125E0,-1.648839385E0,-8.706130469E0,3.186512675E0,9.416434681E0
7.534957125E0,-1.531334032E0,-8.628124520E0,1.850451965E0,8.956209528E0
7.544893125E0,-1.355566144E0,-8.570282693E0,6.296042079E-1,8.699638295E0
7.554828125E0,-1.471163551E0,-8.486982674E0,-2.640631825E-1,8.617594007E0
7.564764125E0,-1.575347486E0,-8.498313408E0,-9.151746190E-1,8.691409268E0
7.574699125E0,-1.471103033E0,-8.511491863E0,-1.219730355E0,8.723381226E0
7.584635125E0,-1.387929021E0,-8.355954757E0,-1.319517183E0,8.572598933E0
7.594571125E0,-1.326140616E0,-8.315455188E0,-1.521500477E0,8.556892404E0
7.604506125E0,-1.498955952E0,-8.467909057E0,-2.020896547E0,8.833819989E0
7.614442125E0,-1.736626557E0,-8.573994505E0,-2.691642349E0,9.152824270E0
7.624377125E0,-1.944199204E0,-8.566025335E0,-3.459627932E0,9.440642246E0
7.634313125E0,-2.246341794E0,-8.579500828E0,-4.184799033E0,9.806448331E0
7.644249125E0,-2.456603868E0,-8.651349660E0,-4.808821196E0,1.019830941E1
7.654184125E0,-2.574854742E0,-8.588653475E0,-5.380795539E0,1.045695013E1
7.664120125E0,-2.091888762E0,-8.419542058E0,-5.896568491E0,1.048971911E1
7.674055125E0,-1.183706244E0,-8.225066589E0,-6.310686430E0,1.043444508E1
7.683991125E0,-2.320216101E-1,-7.738125672E0,-6.629474874E0,1.019226962E1
7.693927125E0,5.616642398E-1,-7.026102036E0,-6.745695886E0,9.756330741E0
7.703862125E0,1.021284334E0,-6.677597458E0,-6.770596254E0,9.564219944E0
7.713798125E0,1.028093124E0,-6.602458398E0,-6.813832321E0,9.543465999E0
7.723733125E0,5.789041704E-1,-6.457098956E0,-6.815749623E0,9.406577480E0
7.733669125E0,-2.278870440E-1,-6.455978045E0,-6.610269109E0,9.242685904E0
7.743605125E0,-8.363798797E-1,-6.593498125E0,-6.138042126E0,9.047060847E0
7.753540125E0,-8.016924423E-1,-6.662735590E0,-5.978639426E0,8.987707477E0
7.763476125E0,5.738165081E-2,-6.593193485E0,-6.504407609E0,9.261793094E0
7.773411125E0,1.467910160E0,-6.012928083E0,-7.601956884E0,9.803051200E0
7.783347125E0,2.366677492E0,-5.252652639E0,-8.606736574E0,1.035699940E1
7.793283125E0,2.663001518E0,-4.714205938E0,-9.403591615E0,1.085093775E1
7.803218125E0,2.509291667E0,-4.508354126E0,-9.336763787E0,1.066756578E1
7.813154125E0,2.399783843E0,-4.433881649E0,-8.479474849E0,9.865077936E0
7.823089125E0,2.730038091E0,-4.326814745E0,-7.376826217E0,8.977304654E0
7.833025125E0,3.467053311E0,-4.044994738E0,-5.995757149E0,8.020694788E0
7.842961125E0,4.757799854E0,-3.560645892E0,-4.848777852E0,7.669778698E0
7.852896125E0,6.265921901E0,-2.898641970E0,-4.322749468E0,8.145554954E0
7.862832125E0,7.654498209E0,-2.038385569E0,-4.556771411E0,9.138409285E0
7.872767125E0,8.606285754E0,-1.268199387E0,-5.017500429E0,1.004249943E1
7.882703125E0,9.637155136E0,-6.278517973E-1,-5.071387199E0,1.090815865E1
7.892638125E0,1.047438169E1,-1.359547806E-1,-4.468326427E0,1.138846331E1
7.902574125E0,1.078749074E1,1.977347070E-1,-3.509498835E0,1.134573212E1
7.912510125E0,1.087448795E1,1.349633852E-1,-2.448044422E0,1.114744925E1
7.922445125E0,1.095457141E1,-1.217436346E-1,-1.058063613E0,1.100622347E1
7.932381125E0,1.129654933E1,-2.656024620E-3,3.669887960E-1,1.130250922E1
7.942316125E0,1.194259532E1,4.005124913E-1,1.367444471E0,1.202729802E1
7.952252125E0,1.211728206E1,8.964277147E-1,2.072383620E0,1.232586228E1
7.962188125E0,1.149509037E1,1.261069438E0,2.762339280E0,1.188940356E1
7.972122125E0,1.052260953E1,1.241931501E0,3.261410830E0,1.108623046E1
7.982058125E0,9.556792173E0,9.634734973E-1,3.520364715E0,1.023003057E1
7.991993125E0,8.810400943E0,8.329768002E-1,3.504674882E0,9.518390680E0
8.001929125E0,8.418559726E0,1.040692120E0,3.339623187E0,9.116373784E0
8.011865125E0,8.093934592E0,1.084308840E0,3.069324533E0,8.724004581E0
8.021800125E0,7.583743392E0,8.486952853E-1,3.124869574E0,8.246105588E0
8.031736125E0,6.932653590E0,4.954415989E-1,3.790350543E0,7.916685254E0
8.041671125E0,6.463853075E0,1.706021646E-1,4.598774884E0,7.934685382E0
8.051607125E0,6.113276244E0,-2.636927614E-1,5.542114372E0,8.255707845E0
8.061543125E0,5.840541641E0,-7.239978567E-1,6.582410635E0,8.829735518E0
8.071478125E0,5.322076045E0,-1.218997406E0,7.720324409E0,9.455890074E0
8.081414125E0,4.588673819E0,-1.711426812E0,8.584046454E0,9.882851950E0
8.091349125E0,3.896840619E0,-2.396662599E0,8.921217374E0,1.002584051E1
8.101285125E0,3.126665838E0,-3.256819304E0,8.912942394E0,9.991168769E0
8.111221125E0,2.415626289E0,-4.103537353E0,8.767166630E0,9.976847192E0
8.121156125E0,1.971037340E0,-4.793435125E0,8.377082502E0,9.850762394E0
8.131092125E0,1.581691715E0,-5.465070873E0,7.925309663E0,9.755986962E0
8.141027125E0,1.101387388E0,-5.951242297E0,7.825814027E0,9.893113980E0
8.150963125E0,7.576377654E-1,-6.290996516E0,7.944359307E0,1.016186484E1
8.160899125E0,3.845678651E-1,-6.923144848E0,7.956172437E0,1.055360161E1
8.170834125E0,-2.439306343E-1,-7.417145693E0,7.949989591E0,1.087547180E1
8.180770125E0,-8.047277319E-1,-7.727915849E0,7.919746622E0,1.109462287E1
8.190705125E0,-1.034485885E0,-8.213920627E0,7.663904040E0,1.128158137E1
8.200641125E0,-1.213634048E0,-8.766897658E0,7.218563139E0,1.142099190E1
8.210577125E0,-1.560236526E0,-9.160908192E0,6.686661812E0,1.144849436E1
8.220512125E0,-1.786268249E0,-9.365604009E0,6.198358494E0,1.137211241E1
8.230448125E0,-2.118200063E0,-9.286506384E0,5.894518458E0,1.120139813E1
8.240383125E0,-2.606962388E0,-8.975421647E0,5.927456408E0,1.106748328E1
8.250319125E0,-3.037270682E0,-8.784224128E0,6.294349895E0,1.122525934E1
8.260255125E0,-3.289328946E0,-8.828254831E0,6.541330436E0,1.146938412E1
8.270190125E0,-3.579499946E0,-8.946628203E0,6.456276838E0,1.159907266E1
8.280126125E0,-3.805152184E0,-9.176551833E0,5.843192768E0,1.152524136E1
8.290061125E0,-3.728582895E0,-9.349855703E0,4.772637164E0,1.114002682E1
8.299997125E0,-3.343372421E0,-9.333685228E0,3.508924638E0,1.051705145E1
8.309933125E0,-2.844296485E0,-9.230274881E0,2.594204348E0,1.000089461E1
8.319868125E0,-2.572108597E0,-9.145817113E0,2.155285444E0,9.742020768E0
8.329804125E0,-2.556140143E0,-8.980925047E0,2.106933063E0,9.572357811E0
8.339739125E0,-2.825356769E0,-8.733075609E0,2.361162398E0,9.477570276E0
8.349675125E0,-3.189847635E0,-8.475280641E0,2.553558013E0,9.408834593E0
8.359610125E0,-3.423603237E0,-8.280656653E0,2.163354017E0,9.217940894E0
8.369546125E0,-3.438045275E0,-8.116770893E0,1.461713866E0,8.935252233E0
8.379482125E0,-3.272724023E0,-7.888098568E0,8.592319679E-1,8.583187119E0
8.389417125E0,-3.007685232E0,-7.651607931E0,3.066373444E-1,8.227229232E0
8.399353125E0,-2.884307228E0,-7.770702265E0,-5.128002280E-1,8.304577409E0
8.409288125E0,-2.794584627E0,-8.218611263E0,-1.335763087E0,8.782911667E0
8.419224125E0,-2.879238862E0,-8.513658257E0,-1.757638527E0,9.157602662E0
8.429160125E0,-3.104155228E0,-8.616091534E0,-1.991316068E0,9.372201059E0
8.439095125E0,-3.136391805E0,-8.663402526E0,-2.591944984E0,9.571294357E0
8.449031125E0,-2.800341796E0,-8.620696217E0,-3.559201337E0,9.737876134E0
8.458966125E0,-2.243675464E0,-8.435003266E0,-4.520009966E0,9.829234445E0
8.468902125E0,-1.761267309E0,-8.229088889E0,-5.051475091E0,9.815160063E0
8.478838125E0,-1.606387430E0,-8.054676386E0,-5.122785394E0,9.679939176E0
8.488773125E0,-1.471460297E0,-7.925728909E0,-5.134158229E0,9.557298513E0
8.498709125E0,-8.664705285E-1,-7.773992493E0,-5.494449039E0,9.559011492E0
8.508644125E0,-2.464914224E-1,-7.624254071E0,-5.921766483E0,9.656983299E0
8.518580125E0,2.525307190E-1,-7.454143950E0,-6.358486249E0,9.800937770E0
8.528516125E0,8.006750268E-1,-7.193200842E0,-6.706955159E0,9.867444773E0
8.538451125E0,1.366002547E0,-6.784036664E0,-6.957267444E0,9.812883710E0
8.548387125E0,1.927196671E0,-6.366815608E0,-7.194990674E0,9.798893753E0
8.558322125E0,2.100142399E0,-5.983636456E0,-7.169949389E0,9.571973546E0
8.568258125E0,2.164402422E0,-5.692922249E0,-6.924499648E0,9.221859734E0
8.578194125E0,2.381508955E0,-5.594690781E0,-6.826962243E0,9.142185915E0
8.588129125E0,2.368519950E0,-5.307703589E0,-7.060498282E0,9.145066437E0
8.598065125E0,2.043774948E0,-5.072561320E0,-7.252310345E0,9.083165732E0
8.608000125E0,2.365891042E0,-4.892052510E0,-7.135140914E0,8.968826793E0
8.617936125E0,3.219293336E0,-4.408134312E0,-7.004888923E0,8.880538638E0
8.627872125E0,3.903454404E0,-3.896404417E0,-6.742645394E0,8.711038432E0
8.637807125E0,4.696639148E0,-3.395556190E0,-6.427816100E0,8.654769838E0
8.647743125E0,5.356291028E0,-2.911287743E0,-6.180308724E0,8.681109711E0
8.657678125E0,5.765186234E0,-2.607312343E0,-5.932095004E0,8.673246284E0
8.667614125E0,6.006782075E0,-2.468810516E0,-5.712848976E0,8.649456611E0
8.677550125E0,6.502108483E0,-2.328862087E0,-5.339077410E0,8.729648385E0
8.687485125E0,7.577871033E0,-1.861355853E0,-5.217311482E0,9.386645519E0
8.697421125E0,8.436635224E0,-1.198814864E0,-4.856492668E0,9.808133972E0
8.707356125E0,9.100600010E0,-4.229659456E-1,-4.144262041E0,1.000873262E1
8.717292125E0,9.429049222E0,1.022323530E-1,-3.559850378E0,1.007918426E1
8.727228125E0,8.963191611E0,3.310345593E-1,-2.985183685E0,9.453026466E0
8.737163125E0,8.344317044E0,3.325735465E-1,-2.574751831E0,8.738854564E0
8.747099125E0,7.742778887E0,1.414605280E-1,-2.587979402E0,8.165064198E0
8.757034125E0,7.358223885E0,-4.752382994E-2,-2.556837716E0,7.789938149E0
8.766970125E0,7.667521713E0,1.229064265E-1,-2.317179058E0,8.010949631E0
8.776906125E0,8.126819918E0,5.548430242E-1,-1.905325745E0,8.365603323E0
8.786841125E0,8.391868941E0,8.978414252E-1,-1.372642061E0,8.550656686E0
8.796777125E0,8.376839842E0,1.012649166E0,-1.024028140E0,8.499737508E0
8.806712125E0,8.147248335E0,8.453964324E-1,-1.027604297E0,8.255199643E0
8.816648125E0,7.791940522E0,6.717079613E-1,-9.687187421E-1,7.880605604E0
8.826583125E0,7.356698931E0,4.336330211E-1,-5.833597487E-1,7.392520907E0
8.836519125E0,7.019932639E0,1.632905138E-1,1.009743977E-1,7.022557503E0
8.846455125E0,6.627177503E0,-1.475544870E-1,1.140621035E0,6.726237457E0
8.856390125E0,6.376821363E0,-4.776260099E-1,2.399691457E0,6.830116865E0
8.866326125E0,6.723733744E0,-8.875012091E-1,3.617825521E0,7.686671279E0
8.876261125E0,7.068872665E0,-1.514245836E0,4.785510979E0,8.669660693E0
8.886197125E0,6.946597445E0,-2.190408499E0,5.969802529E0,9.417624312E0
8.896133125E0,6.513345078E0,-2.879533269E0,7.311322199E0,1.020641015E1
8.906068125E0,5.969344107E0,-3.810977181E0,8.800710937E0,1.129642108E1
8.916004125E0,5.272390500E0,-4.674946270E0,1.049887685E1,1.264435207E1
8.925939125E0,4.415268207E0,-5.306331832E0,1.213508683E1,1.396109177E1
8.935875125E0,3.600322466E0,-5.863076810E0,1.340351631E1,1.506626168E1
8.945811125E0,2.799559731E0,-6.370384163E0,1.416470684E1,1.578157942E1
8.955746125E0,1.770429311E0,-6.884944403E0,1.417061253E1,1.585380518E1
8.965682125E0,8.291357642E-1,-7.372579969E0,1.346948342E1,1.537756110E1
8.975618000E0,2.645976180E-1,-7.802500593E0,1.207564638E1,1.437950843E1
8.985554000E0,-1.563188785E-1,-8.072575298E0,1.049965687E1,1.324513880E1
8.995490000E0,-4.279115206E-1,-8.363356748E0,9.150636973E0,1.240415259E1
9.005425000E0,-3.980486208E-1,-8.732059363E0,8.202975224E0,1.198733106E1
9.015361000E0,-5.037037146E-1,-9.041259542E0,7.801727006E0,1.195261627E1
9.025296000E0,-9.348054761E-1,-9.127972580E0,8.046486776E0,1.220408514E1
9.035232000E0,-1.504773932E0,-9.054416361E0,8.566601871E0,1.255521676E1
9.045168000E0,-2.062797110E0,-8.974001359E0,8.821003699E0,1.275138967E1
9.055103000E0,-2.560802713E0,-8.818510446E0,8.469960845E0,1.249256074E1
9.065039000E0,-2.807471598E0,-8.736997336E0,7.568213772E0,1.189516200E1
9.074974000E0,-2.740999866E0,-8.815879784E0,6.443082011E0,1.125815804E1
9.084910000E0,-2.386005464E0,-8.785266101E0,5.518297493E0,1.064544643E1
9.094846000E0,-2.197402938E0,-8.571500668E0,5.018749394E0,1.017285844E1
9.104781000E0,-2.204165243E0,-8.363635075E0,4.801896631E0,9.892772480E0
9.114717000E0,-2.318263131E0,-8.281053094E0,4.726600281E0,9.812794429E0
9.124652000E0,-2.584853480E0,-8.204237638E0,4.595181186E0,9.752265012E0
9.134588000E0,-2.903174146E0,-8.223381422E0,4.371888299E0,9.755297506E0
9.144524000E0,-3.119384885E0,-8.318374118E0,4.005978314E0,9.745448798E0
9.154459000E0,-3.059619325E0,-8.432677243E0,3.448941561E0,9.610749908E0
9.164395000E0,-2.980361778E0,-8.559195787E0,2.870851323E0,9.507059281E0
9.174330000E0,-2.752019529E0,-8.696491334E0,2.136802980E0,9.368484402E0
9.184266000E0,-2.535079642E0,-8.788718297E0,1.150242628E0,9.219070246E0
9.194202000E0,-2.523088464E0,-8.749843669E0,-1.632542610E-3,9.106357246E0
9.204137000E0,-2.687485271E0,-8.493231009E0,-1.021412095E0,8.966651143E0
9.214073000E0,-2.755085224E0,-8.285708063E0,-1.521946034E0,8.863395084E0
9.224008000E0,-2.589115808E0,-8.217395627E0,-1.455364959E0,8.737688408E0
9.233944000E0,-2.385221644E0,-8.287382705E0,-1.226461084E0,8.710579842E0
9.243880000E0,-2.386843370E0,-8.466632025E0,-1.098307074E0,8.864939793E0
9.253815000E0,-2.547791489E0,-8.739952519E0,-1.353284268E0,9.203770413E0
9.263751000E0,-2.778485196E0,-9.029122476E0,-1.955438138E0,9.647215711E0
9.273686000E0,-2.849718609E0,-9.241411487E0,-2.893550799E0,1.009441522E1
9.283622000E0,-2.916970944E0,-9.266978438E0,-3.765926138E0,1.041958773E1
9.293558000E0,-2.815904453E0,-9.036260172E0,-4.671489104E0,1.055491005E1
9.303493000E0,-2.471907201E0,-8.712558898E0,-5.609340979E0,1.065287351E1
9.313429000E0,-2.061130654E0,-8.386953186E0,-6.271619428E0,1.067344619E1
9.323364000E0,-1.747456185E0,-8.051116601E0,-6.598737230E0,1.055544479E1
9.333300000E0,-1.419702499E0,-7.838138203E0,-6.615789465E0,1.035473978E1
9.343236000E0,-6.837897706E-1,-7.607676630E0,-6.675466148E0,1.014426737E1
9.353171000E0,2.822690731E-1,-7.157281981E0,-6.892776749E0,9.940660566E0
9.363107000E0,8.148694351E-1,-6.646306669E0,-7.037563748E0,9.714149888E0
9.373042000E0,9.234724027E-1,-6.193114126E0,-7.076996201E0,9.449409457E0
9.382978000E0,8.462526110E-1,-5.822194247E0,-7.138246370E0,9.250332457E0
9.392914000E0,9.690660667E-1,-5.501559253E0,-7.126986387E0,9.055394979E0
9.402849000E0,1.350137882E0,-5.213876828E0,-7.272991946E0,9.050071587E0
9.412785000E0,1.906515069E0,-4.839128777E0,-7.667555627E0,9.265170064E0
9.422720000E0,2.277333207E0,-4.266316236E0,-8.036271690E0,9.379198443E0
9.432656000E0,2.239055579E0,-3.701531922E0,-8.196550303E0,9.268125232E0
9.442592000E0,1.889768059E0,-3.457535799E0,-7.931229969E0,8.856081862E0
9.452527000E0,1.613919813E0,-3.463369858E0,-7.235768571E0,8.182665504E0
9.462463000E0,1.630730558E0,-3.436309529E0,-6.424849808E0,7.466337816E0
9.472398000E0,1.907493308E0,-3.424269819E0,-5.797111446E0,6.997903660E0
9.482334000E0,2.680047321E0,-3.111802216E0,-5.283987867E0,6.692271248E0
9.492270000E0,3.791508876E0,-2.529119575E0,-5.164036331E0,6.887616178E0
9.502205000E0,4.726282777E0,-1.923848555E0,-5.091416836E0,7.208430311E0
9.512141000E0,5.679872434E0,-1.080618370E0,-5.045798614E0,7.673901913E0
9.522076000E0,6.305395870E0,-4.698212926E-1,-5.291862897E0,8.245153852E0
9.532012000E0,6.626666456E0,-3.246526158E-1,-5.497984266E0,8.616608302E0
9.541948000E0,7.111752051E0,-2.917050174E-1,-5.305674021E0,8.877628392E0
9.551883000E0,7.546756244E0,-2.334725967E-1,-4.512556520E0,8.796090359E0
9.561819000E0,8.156805024E0,-6.375803947E-3,-3.293860538E0,8.796762251E0
9.571754000E0,8.885603153E0,3.536222072E-1,-2.238643350E0,9.170088118E0
9.581690000E0,9.270354035E0,5.589585869E-1,-1.475648366E0,9.403692719E0
9.591626000E0,9.378377252E0,5.474983366E-1,-1.032807734E0,9.450947366E0
9.601561000E0,9.217068359E0,4.613768899E-1,-7.051075494E-1,9.255506168E0
9.611497000E0,9.099507750E0,3.576392443E-1,-1.580525780E-1,9.107904684E0
9.621432000E0,9.267338626E0,2.335787237E-1,3.620607626E-1,9.277349418E0
9.631368000E0,9.399393314E0,-3.677080035E-2,9.098156458E-1,9.443395114E0
9.641304000E0,9.223752311E0,-4.409856024E-1,1.491666813E0,9.353990853E0
9.651239000E0,8.879835459E0,-9.084725404E-1,2.031797512E0,9.154507156E0
9.661175000E0,8.213004368E0,-1.451294128E0,2.687680861E0,8.762609417E0
9.671110000E0,7.536190910E0,-2.025853817E0,3.456011429E0,8.534768428E0
9.681046000E0,7.232071962E0,-2.274221903E0,4.406331908E0,8.768734858E0
9.690982000E0,6.959353146E0,-2.398973418E0,5.523770487E0,9.203244540E0
9.700917000E0,6.471877209E0,-2.587565127E0,6.609480904E0,9.605515380E0
9.710853000E0,5.913947586E0,-2.652856598E0,7.578784953E0,9.972482416E0
9.720788000E0,5.584299109E0,-2.706999477E0,8.126915812E0,1.022540969E1
9.730724000E0,5.438408740E0,-2.998566500E0,8.169197613E0,1.026174840E1
9.740660000E0,5.020985954E0,-3.252848460E0,7.713793654E0,9.761861277E0
9.750595000E0,4.111852094E0,-3.639571901E0,7.341693222E0,9.168111617E0
9.760531000E0,3.343556024E0,-4.067888341E0,7.251329182E0,8.961520928E0
9.770466000E0,2.563103592E0,-4.333821756E0,7.442539566E0,8.985705661E0
9.780402000E0,2.030055626E0,-4.696001801E0,7.598094798E0,9.159945596E0
9.790338000E0,1.504931222E0,-5.284177902E0,7.797502978E0,9.538784344E0
9.800273000E0,6.810813403E-1,-5.728815383E0,7.974409903E0,9.842479910E0
9.810209000E0,-5.485857725E-2,-6.074578786E0,7.931314754E0,9.990458979E0
9.820144000E0,-4.321647853E-1,-6.526117151E0,7.741236391E0,1.013428401E1
9.830080000E0,-5.606515020E-1,-6.866867736E0,7.639856197E0,1.028764333E1
9.840016000E0,-5.594382048E-1,-7.003348181E0,7.702845912E0,1.042562670E1
9.849951000E0,-4.466530162E-1,-7.076519653E0,7.833484989E0,1.056598866E1
9.859887000E0,-3.197707754E-1,-7.144554931E0,7.905342591E0,1.066027017E1
9.869822000E0,-3.638634592E-1,-7.328645745E0,7.721774518E0,1.065210058E1
9.879758000E0,-7.296430510E-1,-7.809844111E0,7.147072742E0,1.061163007E1
9.889694000E0,-1.468253977E0,-8.486883271E0,6.461974365E0,1.076754708E1
9.899629000E0,-2.300057241E0,-8.946757427E0,6.005243672E0,1.101806169E1
9.909565000E0,-3.016391444E0,-9.107708470E0,5.744077200E0,1.118228035E1
9.919500000E0,-3.686760101E0,-9.067061550E0,5.805310997E0,1.138004574E1
9.929436000E0,-4.244655810E0,-8.891847979E0,6.041871800E0,1.155795303E1
9.939372000E0,-4.395944914E0,-8.598159294E0,6.191255881E0,1.147102107E1
9.949307000E0,-4.214443247E0,-8.360664105E0,6.146344002E0,1.119999021E1
9.959243000E0,-3.926095993E0,-8.176530606E0,5.756497271E0,1.074277168E1
9.969177042E0,-3.590691517E0,-7.959384313E0,4.991782621E0,1.005796987E1
9.979113042E0,-3.314700015E0,-7.859664727E0,4.147557532E0,9.484924844E0
9.989049042E0,-2.989937471E0,-7.903860907E0,3.485728149E0,9.141173013E0
9.998984042E0,-2.580284466E0,-8.025226300E0,3.304925809E0,9.054538072E0
1.000892004E1,-2.471447610E0,-8.118182411E0,3.550720536E0,9.198943160E0
1.001885604E1,-2.491371413E0,-8.374855882E0,3.813165209E0,9.533381953E0
1.002879104E1,-2.617698753E0,-8.638170621E0,3.835092852E0,9.807052341E0
1.003872704E1,-2.760464078E0,-8.704012608E0,3.446371125E0,9.759993408E0
1.004866204E1,-2.544567042E0,-8.687939197E0,2.441073956E0,9.376243969E0
1.005859804E1,-2.308558800E0,-8.794368462E0,1.309159425E0,9.186090506E0
1.006853304E1,-2.347646852E0,-8.869998688E0,4.210971755E-1,9.185077316E0
1.007846904E1,-2.406940250E0,-8.980045041E0,-7.970105767E-2,9.297361054E0
1.008840504E1,-2.386147843E0,-9.210070412E0,-4.748038512E-1,9.525992715E0
1.009834004E1,-2.162169955E0,-9.417077048E0,-1.179222599E0,9.733801158E0
1.010827604E1,-1.784135477E0,-9.570806780E0,-2.019870361E0,9.943005486E0
1.011821104E1,-1.762606321E0,-9.737302737E0,-2.707582444E0,1.025928108E1
1.012814704E1,-2.110678205E0,-9.817968585E0,-3.325580513E0,1.057860839E1
1.013808304E1,-2.423149609E0,-9.816258860E0,-3.933769294E0,1.084919964E1
1.014801804E1,-2.484317916E0,-9.856796436E0,-4.585326873E0,1.115138978E1
1.015795404E1,-2.153935322E0,-9.754312872E0,-5.578900375E0,1.144159894E1
1.016788904E1,-1.528325054E0,-9.528679345E0,-6.409697333E0,1.158515116E1
1.017782504E1,-1.056489834E0,-9.131811277E0,-6.777625777E0,1.142113651E1
1.018776104E1,-6.186123195E-1,-8.821752727E0,-6.932323807E0,1.123668615E1
1.019769604E1,3.468448457E-1,-8.505279781E0,-7.097938589E0,1.108335769E1
1.020763204E1,1.498249024E0,-7.801828163E0,-7.220657027E0,1.073550934E1
1.021756804E1,2.258859513E0,-6.890382314E0,-7.164535452E0,1.019364424E1
1.022750304E1,2.023628951E0,-6.251025535E0,-6.763262676E0,9.429322160E0
1.023743904E1,1.290502129E0,-6.089391537E0,-6.015708434E0,8.656490802E0
1.024737404E1,5.362428850E-1,-6.329831384E0,-5.302916474E0,8.274977034E0
1.025731004E1,5.206477761E-1,-6.497278683E0,-5.029312974E0,8.232842364E0
1.026724504E1,1.416066408E0,-6.018627949E0,-5.587648979E0,8.333723512E0
1.027718104E1,2.279547547E0,-4.981532452E0,-6.821674021E0,8.749127902E0
1.028711704E1,2.612813112E0,-4.118962308E0,-8.390054550E0,9.704929582E0
1.029705204E1,2.645325385E0,-3.452106951E0,-9.562489700E0,1.050504631E1
1.030698804E1,2.950265867E0,-2.653290754E0,-1.011521296E1,1.086561336E1
1.031692404E1,3.395481638E0,-2.134761424E0,-9.870221643E0,1.065400287E1
1.032685904E1,3.737792845E0,-2.142765970E0,-8.918355746E0,9.904524752E0
1.033679504E1,4.068307879E0,-2.241527781E0,-7.614975709E0,8.919833566E0
1.034673004E1,4.578680928E0,-2.189921133E0,-6.388255008E0,8.159036442E0
1.035666604E1,5.277771692E0,-1.898732133E0,-5.249334344E0,7.682159124E0
1.036660204E1,5.934242687E0,-1.262468531E0,-4.268083264E0,7.417924090E0
1.037653704E1,6.342961307E0,-6.863289240E-1,-3.470064628E0,7.262613445E0
1.038647304E1,6.817049459E0,3.352208734E-3,-3.100170350E0,7.488873798E0
1.039640804E1,7.458801842E0,6.044559181E-1,-3.274495144E0,8.168317472E0
1.040634404E1,8.047670252E0,9.908969387E-1,-3.045652665E0,8.661574533E0
1.041628004E1,8.482532943E0,1.334278771E0,-2.604017145E0,8.972991154E0
1.042621504E1,8.679201702E0,1.431875525E0,-2.204668103E0,9.068592568E0
1.043615104E1,8.968947610E0,1.464214428E0,-2.004258880E0,9.306073220E0
1.044608604E1,9.104894205E0,1.347685413E0,-1.985520308E0,9.415818889E0
1.045602204E1,8.967759456E0,8.106024295E-1,-1.571915170E0,9.140497977E0
1.046595804E1,8.879856509E0,4.098002087E-1,-8.186283177E-1,8.926922211E0
1.047589304E1,9.030756773E0,2.607992667E-1,-4.577200413E-2,9.034637747E0
1.048582904E1,9.283892679E0,2.460663298E-1,7.764196068E-1,9.319551454E0
1.049576404E1,9.361484646E0,2.307419470E-1,1.712689810E0,9.519660866E0
1.050570004E1,9.176212694E0,-5.179843694E-2,2.358746914E0,9.474663555E0
1.051563604E1,8.369718518E0,-8.956367326E-1,2.740854270E0,8.852493172E0
1.052557104E1,7.153059121E0,-1.873838781E0,3.555765513E0,8.204937231E0
1.053550704E1,6.267169113E0,-2.482868099E0,4.625984902E0,8.175682173E0
1.054544204E1,5.744758401E0,-2.765956660E0,5.733753356E0,8.574887339E0
1.055537804E1,5.545955992E0,-2.891910655E0,6.910493812E0,9.320713483E0
1.056531404E1,4.953565804E0,-2.989539860E0,7.936256236E0,9.821370871E0
1.057524904E1,4.148113602E0,-3.122460813E0,8.572410495E0,1.002211703E1
1.058518504E1,3.419224257E0,-3.374569656E0,9.026362005E0,1.022516630E1
1.059512004E1,2.804910518E0,-3.544063188E0,9.189135041E0,1.024051316E1
1.060505604E1,2.161827893E0,-3.524778779E0,9.005942359E0,9.909821545E0
1.061499204E1,1.462632464E0,-3.480654520E0,8.488400039E0,9.290166028E0
1.062492704E1,8.325166243E-1,-3.326721598E0,7.775007570E0,8.497699879E0
1.063486304E1,6.752019650E-1,-3.463824771E0,7.002623127E0,7.841601265E0
1.064479804E1,6.163012075E-1,-3.952078973E0,6.285117141E0,7.449929722E0
1.065473404E1,5.824353039E-1,-4.327140435E0,5.822165011E0,7.277429535E0
1.066467004E1,6.141184419E-1,-4.885468838E0,5.584573928E0,7.445294701E0
1.067460504E1,3.227797526E-1,-5.726726757E0,5.430807359E0,7.898940099E0
1.068454104E1,-2.520243502E-1,-6.539378051E0,5.653955235E0,8.648363508E0
1.069447604E1,-9.518664819E-1,-7.095315528E0,6.356596429E0,9.573707244E0
1.070441204E1,-1.572371837E0,-7.664439645E0,7.009314680E0,1.050459331E1
1.071434804E1,-2.271786538E0,-8.135342819E0,7.540024345E0,1.132240186E1
1.072428304E1,-2.659746373E0,-8.251763222E0,7.780237904E0,1.164894626E1
1.073421904E1,-2.486088746E0,-8.323551827E0,7.434521863E0,1.143390868E1
1.074415404E1,-2.451096668E0,-8.289401164E0,6.739805986E0,1.096116012E1
1.075409004E1,-2.414156299E0,-8.073452380E0,6.036373079E0,1.036564440E1
1.076402604E1,-2.106027914E0,-8.037238820E0,5.251205453E0,9.828922633E0
1.077396104E1,-1.995982731E0,-8.324623622E0,4.421609513E0,9.635036906E0
1.078389704E1,-2.376134779E0,-8.615516168E0,3.869051142E0,9.738721275E0
1.079383204E1,-3.059476653E0,-8.619975255E0,3.828275583E0,9.915647469E0
1.080376804E1,-3.607437358E0,-8.383902694E0,4.161118394E0,1.003086910E1
1.081370404E1,-3.899670671E0,-8.349167894E0,4.542083205E0,1.027358534E1
1.082363904E1,-3.998899675E0,-8.704849929E0,4.598958487E0,1.062619547E1
1.083357504E1,-4.076092570E0,-8.924252663E0,4.300738209E0,1.071229039E1
1.084351104E1,-3.871677419E0,-8.695713070E0,3.691679363E0,1.020949599E1
1.085344604E1,-3.447595824E0,-8.525068513E0,2.732490413E0,9.593185810E0
1.086338204E1,-3.021695454E0,-8.501045228E0,1.525443839E0,9.150158047E0
1.087331704E1,-2.848383105E0,-8.225539629E0,5.716641480E-1,8.723507803E0
1.088325304E1,-2.690974305E0,-7.847528831E0,2.106482828E-1,8.298760399E0
1.089318904E1,-2.511655696E0,-7.707737693E0,4.650401706E-1,8.119969029E0
1.090312404E1,-2.642940598E0,-7.712751680E0,1.106683211E0,8.227783493E0
1.091306004E1,-2.948476619E0,-7.809781546E0,1.453361703E0,8.473397336E0
1.092299504E1,-3.040528166E0,-8.078149449E0,1.296665094E0,8.728267320E0
1.093293104E1,-3.082861715E0,-8.454235343E0,5.403511387E-1,9.014993674E0
1.094286704E1,-2.889468273E0,-8.841330374E0,-5.207495177E-1,9.316079098E0
1.095280204E1,-2.946606095E0,-9.076349267E0,-1.240759866E0,9.622997898E0
1.096273804E1,-3.144463009E0,-9.148450114E0,-1.635668532E0,9.811075305E0
1.097267437E1,-3.260242264E0,-9.356174204E0,-1.826418155E0,1.007486867E1
1.098261038E1,-3.248579700E0,-9.715688505E0,-1.933280114E0,1.042523118E1
1.099254637E1,-2.945953838E0,-1.011346348E1,-2.343925391E0,1.079142130E1
1.100248138E1,-2.283736492E0,-1.037796461E1,-3.214325541E0,1.110177871E1
1.101241737E1,-1.429274391E0,-1.032136006E1,-4.614408585E0,1.139587931E1
1.102235238E1,-7.368304485E-1,-9.989714173E0,-6.212966008E0,1.178720726E1
1.103228837E1,-3.803689796E-1,-9.306258278E0,-7.481419457E0,1.194666317E1
1.104222438E1,2.373969555E-3,-8.416926599E0,-8.057115844E0,1.165168549E1
1.105215937E1,1.729466057E-1,-7.837309653E0,-8.084625825E0,1.126119478E1
1.106209538E1,1.594629264E-1,-7.636270684E0,-8.033876671E0,1.108518077E1
1.107203038E1,2.110242587E-1,-7.559209644E0,-7.844202935E0,1.089576530E1
1.108196638E1,4.029023945E-1,-7.335148433E0,-7.694262199E0,1.063806391E1
1.109190237E1,8.548237520E-1,-6.954170759E0,-7.638316625E0,1.036509023E1
1.110183737E1,1.164046150E0,-6.413745360E0,-7.510564318E0,9.944833300E0
1.111177338E1,1.472510750E0,-5.875219138E0,-7.332903687E0,9.510939192E0
1.112170837E1,1.889316654E0,-5.277519093E0,-7.185290143E0,9.113183836E0
1.113164438E1,2.676524958E0,-4.476563399E0,-7.296098973E0,8.968637909E0
1.114158037E1,3.571093404E0,-3.669595014E0,-7.489804949E0,9.072806283E0
1.115151538E1,4.435159850E0,-2.754084181E0,-7.782990189E0,9.371795924E0
1.116145137E1,4.910708052E0,-1.999229105E0,-7.679223745E0,9.331797679E0
1.117138638E1,4.958096811E0,-1.366464185E0,-7.416394325E0,9.025123442E0
1.118132237E1,4.957582841E0,-1.108651676E0,-7.559333605E0,9.107703372E0
1.119125838E1,4.983200662E0,-1.333673292E0,-7.122383459E0,8.794277652E0
1.120119337E1,5.806317887E0,-1.313797144E0,-6.555001227E0,8.854797086E0
1.121112938E1,6.999656249E0,-9.381766883E-1,-6.170008269E0,9.377865703E0
1.122106437E1,8.473765043E0,-2.695817846E-1,-5.658669845E0,1.019303256E1
1.123100038E1,9.855117116E0,5.082396922E-1,-5.209122457E0,1.115870054E1
1.124093637E1,1.066053131E1,1.003587736E0,-4.723120018E0,1.170307562E1
1.125087137E1,1.088013870E1,1.181026245E0,-3.903603508E0,1.161939591E1
1.126080737E1,1.052241072E1,1.191251929E0,-2.819618019E0,1.095857903E1
1.127074237E1,9.991986401E0,1.116554480E0,-1.639127744E0,1.018691444E1
1.128067838E1,9.667098143E0,9.869681945E-1,-6.099698424E-1,9.736475539E0
1.129061438E1,9.885860606E0,8.074358699E-1,-1.063339555E-1,9.919349753E0
1.130054938E1,9.546633221E0,3.482101706E-1,5.758332127E-1,9.570320792E0
1.131048537E1,9.091316385E0,-2.373881847E-2,1.670548342E0,9.243556075E0
1.132042038E1,9.095574912E0,4.933354318E-2,2.694551924E0,9.486439103E0
1.133035637E1,9.099880217E0,3.486405256E-1,3.316737769E0,9.691755239E0
1.134029238E1,8.514611353E0,3.355658591E-1,3.727998174E0,9.301031196E0
1.135022737E1,8.203441247E0,3.756719112E-2,4.305696064E0,9.264819382E0
1.136016338E1,7.823203245E0,-5.338274002E-1,5.381683731E0,9.510520516E0
1.137009937E1,7.246713390E0,-1.591978721E0,6.506019101E0,9.868005662E0
1.138003438E1,7.088338630E0,-2.726843465E0,7.318579178E0,1.054712383E1
1.138997037E1,6.397955539E0,-3.657459411E0,8.196493000E0,1.102240182E1
1.139990538E1,5.178977137E0,-4.134635770E0,9.032730793E0,1.120300150E1
1.140984137E1,4.159343764E0,-4.366523186E0,9.708237982E0,1.142875978E1
1.141977738E1,3.365262643E0,-4.397189786E0,1.012741844E1,1.154230804E1
1.142971237E1,2.761070434E0,-4.357256811E0,1.009364492E1,1.133538110E1
1.143964838E1,2.375159463E0,-4.370652198E0,9.480767845E0,1.070649065E1
1.144958338E1,2.049674789E0,-4.439730911E0,8.496238232E0,9.802981250E0
1.145951937E1,1.438019779E0,-4.903522409E0,7.564871503E0,9.129058755E0
1.146945537E1,5.932187390E-1,-5.860201734E0,6.756016222E0,8.963126018E0
1.147939037E1,-1.273406625E-2,-7.313728913E0,6.008055013E0,9.465068294E0
1.148932638E1,-5.790936202E-1,-8.337717292E0,5.648044285E0,1.008728325E1
1.149926137E1,-7.941284841E-1,-8.678322281E0,6.117912501E0,1.064766505E1
1.150919738E1,-5.877422369E-1,-8.919820474E0,7.108001062E0,1.142069688E1
1.151913337E1,-5.410832101E-1,-8.976861232E0,8.090260202E0,1.209665734E1
1.152906838E1,-2.934816939E-1,-9.009304508E0,8.583023776E0,1.244676650E1
1.153900437E1,2.190834761E-2,-9.067363266E0,8.753379480E0,1.260314282E1
1.154893938E1,3.622700930E-2,-9.039715292E0,8.512097050E0,1.241666465E1
1.155887537E1,-1.071473032E-1,-9.617853477E0,7.743095806E0,1.234787912E1
1.156881138E1,-6.921121126E-1,-1.035030378E1,6.594347141E0,1.229199828E1
1.157874637E1,-1.364139040E0,-1.043256007E1,5.711750869E0,1.197177025E1
1.158868238E1,-1.837219132E0,-1.045335043E1,5.178868963E0,1.180968217E1
1.159861738E1,-2.283049445E0,-1.048913305E1,4.919879994E0,1.180844808E1
1.160855338E1,-2.771165067E0,-1.029664037E1,4.915832552E0,1.174161694E1
1.161848937E1,-3.009253163E0,-1.006557010E1,5.035262516E0,1.165011479E1
1.162842437E1,-3.136409054E0,-9.751196306E0,4.974570172E0,1.138724021E1
1.163836038E1,-3.044162503E0,-9.480241596E0,4.501914588E0,1.092744897E1
1.164829537E1,-2.835744056E0,-9.319847208E0,3.829238620E0,1.046728545E1
1.165823138E1,-2.578188824E0,-9.094359276E0,3.036097730E0,9.928359265E0
1.166816737E1,-2.162853495E0,-8.905238103E0,2.153873341E0,9.413839348E0
1.167810238E1,-1.912711948E0,-8.683200029E0,1.488732095E0,9.015140209E0
1.168803837E1,-1.875341808E0,-8.471470596E0,1.084831581E0,8.744116908E0
1.169797438E1,-1.869047281E0,-8.412115510E0,9.184765416E-1,8.666061634E0
1.170790937E1,-2.076610280E0,-8.409968412E0,9.730339873E-1,8.717033560E0
1.171784538E1,-2.335999491E0,-8.599780142E0,7.284309232E-1,8.941125417E0
1.172778037E1,-2.638384447E0,-8.764732434E0,2.565623742E-1,9.156824307E0
1.173771638E1,-2.663832407E0,-8.683281305E0,-1.213115984E-1,9.083506692E0
1.174765237E1,-2.311598183E0,-8.706719869E0,-6.628807122E-1,9.032710992E0
1.175758738E1,-1.925033786E0,-8.904515972E0,-1.504706689E0,9.233650523E0
1.176752337E1,-1.395110864E0,-9.134486963E0,-2.396822228E0,9.546200459E0
1.177745837E1,-9.748738137E-1,-9.241407394E0,-3.277382500E0,9.853690965E0
1.178739437E1,-9.719849968E-1,-9.045629750E0,-4.148486654E0,9.998905637E0
1.179733038E1,-1.167079101E0,-8.704197965E0,-4.669828495E0,9.946478473E0
1.180726538E1,-1.224886429E0,-8.471508018E0,-4.694909542E0,9.762631329E0
1.181720138E1,-9.526856768E-1,-8.335128729E0,-4.561031107E0,9.549082977E0
1.182713638E1,-6.249331596E-1,-8.176504294E0,-4.634959794E0,9.419586838E0
1.183707237E1,-2.057342827E-1,-8.046399652E0,-4.959245789E0,9.454152144E0
1.184700838E1,3.574209970E-1,-7.678173001E0,-5.826004293E0,9.644916610E0
1.185694337E1,7.700993514E-1,-7.148858482E0,-7.028038634E0,1.005447948E1
1.186687938E1,1.045485082E0,-6.724873366E0,-7.780373560E0,1.033688413E1
1.187681437E1,8.071742070E-1,-6.306834285E0,-8.072378247E0,1.027574715E1
1.188675038E1,4.083350426E-1,-5.868484315E0,-8.282449994E0,1.015897749E1
1.189668637E1,3.467515826E-1,-5.567422875E0,-8.263424324E0,9.969985742E0
1.190662138E1,1.772752994E-1,-5.397743694E0,-8.088711859E0,9.725961292E0
1.191655737E1,-2.842916250E-2,-5.206870109E0,-7.941498849E0,9.496299728E0
1.192649238E1,1.442654282E-1,-4.986535329E0,-7.855064138E0,9.305287729E0
1.193642837E1,6.964372981E-1,-4.565752149E0,-7.900856608E0,9.151756811E0
1.194636438E1,1.114399781E0,-3.883088552E0,-8.204728804E0,9.145372508E0
1.195629937E1,1.085635573E0,-3.424539961E0,-8.531066587E0,9.256628741E0
1.196623538E1,8.706346232E-1,-3.408482629E0,-8.519463372E0,9.217212954E0
1.197617038E1,1.101116661E0,-3.433932343E0,-8.292103747E0,9.042307990E0
1.198610537E1,1.891033396E0,-3.394641978E0,-7.812400514E0,8.725434273E0
1.199604138E1,3.073091894E0,-3.131464064E0,-6.883090251E0,8.162529778E0
1.200597637E1,4.373638371E0,-2.474622940E0,-5.760839998E0,7.644589510E0
1.201591238E1,5.655958491E0,-1.599279116E0,-4.851924824E0,7.621596594E0
1.202584837E1,6.837360932E0,-7.621214104E-1,-3.961178702E0,7.938593721E0
1.203578338E1,7.901516173E0,1.264004302E-1,-3.023870618E0,8.461307725E0
1.204571937E1,8.590159718E0,6.781530547E-1,-2.693467265E0,9.028039735E0
1.205565437E1,8.924629809E0,7.528439257E-1,-2.482930080E0,9.294123572E0
1.206559037E1,9.302943492E0,8.015553251E-1,-2.014327201E0,9.552212447E0
1.207552638E1,9.631565198E0,9.459689802E-1,-1.484387614E0,9.791083293E0
1.208546138E1,9.814745600E0,1.128923534E0,-8.332972276E-1,9.914539012E0
1.209539738E1,1.020549865E1,1.349500243E0,-4.030579305E-1,1.030222351E1
1.210533238E1,1.022978798E1,1.302717255E0,1.531754154E-1,1.031353951E1
1.211526837E1,9.896316597E0,9.187443441E-1,7.360007286E-1,9.966086014E0
1.212520438E1,9.818548629E0,6.005903238E-1,1.272639470E0,9.918881849E0
1.213513937E1,1.033836844E1,6.543075246E-1,2.149093242E0,1.057963053E1
1.214507538E1,1.071628334E1,8.299856570E-1,3.014010458E0,1.116296842E1
1.215501037E1,1.013168808E1,4.853092512E-1,3.692816647E0,1.079460621E1
1.216494638E1,9.610017039E0,-1.461906239E-1,4.070366684E0,1.043751331E1
1.217488237E1,9.225121145E0,-8.516542688E-1,4.470067143E0,1.028638301E1
1.218481738E1,8.562314692E0,-1.831301749E0,5.080051019E0,1.012293521E1
1.219475337E1,7.604432595E0,-2.742400567E0,6.122497888E0,1.014066745E1
1.220468838E1,6.567797858E0,-3.129966592E0,7.549078758E0,1.048433353E1
1.221462437E1,5.647242047E0,-3.185776511E0,8.988573205E0,1.108309356E1
1.222456038E1,4.712606725E0,-3.078748783E0,1.015076286E1,1.160712466E1
1.223449538E1,3.738078189E0,-2.868746910E0,1.059812983E1,1.159841770E1
1.224443138E1,2.957257968E0,-2.655988952E0,1.049103222E1,1.121879713E1
1.225436638E1,2.725425807E0,-2.560250151E0,9.647930385E0,1.034724057E1
1.226430237E1,3.051533795E0,-2.901977221E0,8.175986815E0,9.196743483E0
1.227423837E1,3.281498939E0,-3.774905415E0,6.743459326E0,8.395974623E0
1.228417337E1,3.342151523E0,-4.898669804E0,5.727886845E0,8.244733492E0
1.229410938E1,3.054837472E0,-6.168627157E0,5.406245545E0,8.752798631E0
1.230404537E1,2.246116676E0,-7.249629396E0,5.731909729E0,9.510886165E0
1.231398038E1,9.466601211E-1,-8.101244781E0,6.369548596E0,1.034879132E1
1.232391637E1,-3.460200959E-1,-8.876224803E0,6.785920637E0,1.117836372E1
1.233385138E1,-1.365709017E0,-9.580324293E0,7.003434720E0,1.194553777E1
1.234378737E1,-2.021121081E0,-1.021626571E1,7.082622977E0,1.259446560E1
1.235372338E1,-2.532422082E0,-1.060403434E1,7.157282565E0,1.304167933E1
1.236365837E1,-2.707184833E0,-1.047010270E1,7.400769396E0,1.310432325E1
1.237359438E1,-2.533130180E0,-1.027574944E1,7.692429097E0,1.308362490E1
1.238352937E1,-2.360055521E0,-1.017571293E1,7.734254816E0,1.299744949E1
1.239346538E1,-2.386578491E0,-1.038363992E1,7.364740022E0,1.295203191E1
1.240340137E1,-2.770909544E0,-1.089625830E1,6.452894223E0,1.296326458E1
1.241333638E1,-3.429514187E0,-1.149049446E1,5.289492436E0,1.310617262E1
1.242327237E1,-4.081788635E0,-1.164135964E1,4.418433305E0,1.310361803E1
1.243320737E1,-4.436848526E0,-1.159850890E1,3.946084115E0,1.303006575E1
1.244314338E1,-4.656302423E0,-1.149636272E1,3.579467787E0,1.290969007E1
1.245307938E1,-4.793276081E0,-1.110223934E1,3.165272080E0,1.250016645E1
1.246301438E1,-4.579489305E0,-1.073949562E1,2.735975938E0,1.199141580E1
1.247295037E1,-4.166862114E0,-1.043699576E1,2.349377920E0,1.148099286E1
1.248288538E1,-3.705769691E0,-1.007965487E1,1.971548386E0,1.091875334E1
1.249282137E1,-3.211080921E0,-9.773783516E0,1.741133591E0,1.043405152E1
1.250275738E1,-2.585643439E0,-9.501962247E0,1.731205603E0,9.998495456E0
1.251269237E1,-2.095894397E0,-9.255975732E0,1.665563591E0,9.635349613E0
1.252262838E1,-1.881706502E0,-9.134389315E0,1.463793136E0,9.440369583E0
1.253256437E1,-1.968627410E0,-9.148013327E0,1.028109496E0,9.413747970E0
1.254249938E1,-2.243947652E0,-9.306651211E0,5.921750110E-1,9.591648924E0
1.255243537E1,-2.490589640E0,-9.559210582E0,2.451117718E-1,9.881377611E0
1.256237038E1,-2.893062849E0,-9.849341236E0,4.055160999E-2,1.026552385E1
1.257230637E1,-3.230646874E0,-1.007696866E1,-2.039842111E-1,1.058413843E1
1.258224238E1,-3.004083348E0,-1.024383767E1,-7.872656071E-1,1.070422880E1
1.259217737E1,-2.233887517E0,-1.028761695E1,-1.960138714E0,1.070828930E1
1.260211338E1,-1.279255595E0,-1.014847309E1,-3.440997534E0,1.079205565E1
1.261204838E1,-5.295045537E-1,-9.835778035E0,-4.797794809E0,1.095635613E1
1.262198438E1,-1.636337453E-1,-9.473458241E0,-5.561740551E0,1.098663483E1
1.263192037E1,-1.846682265E-1,-9.206343981E0,-5.674669581E0,1.081631854E1
1.264185537E1,-5.441199616E-1,-9.293516026E0,-5.309671762E0,1.071718811E1
1.265179138E1,-6.403227389E-1,-9.592308746E0,-4.955758510E0,1.081581909E1
1.266172637E1,4.985552412E-1,-9.456801862E0,-5.328360633E0,1.086605199E1
1.267166238E1,2.503316105E0,-8.511827493E0,-6.568611206E0,1.103922334E1
1.268159837E1,3.583998209E0,-7.277163350E0,-7.889277366E0,1.131560193E1
1.269153338E1,3.617172972E0,-6.198118173E0,-8.532239538E0,1.114897846E1
1.270146937E1,2.997167553E0,-5.607168739E0,-8.389586188E0,1.052656216E1
1.271140438E1,1.843434722E0,-5.485583491E0,-7.685736374E0,9.620832678E0
1.272134037E1,1.085665394E0,-5.599769087E0,-7.007345923E0,9.035429157E0
1.273127638E1,8.582853037E-1,-5.587987533E0,-6.907677793E0,8.926268583E0
1.274121137E1,1.115360479E0,-5.265628780E0,-7.500157444E0,9.231643252E0
1.275114738E1,1.529909942E0,-4.908906525E0,-8.258009802E0,9.727934703E0
1.276108337E1,1.869975234E0,-4.719752607E0,-8.761900628E0,1.012639001E1
1.277101838E1,2.385740000E0,-4.431311797E0,-8.881470340E0,1.020827091E1
1.278095437E1,3.098041964E0,-3.885024858E0,-8.706276065E0,1.002449625E1
1.279088937E1,3.949952633E0,-3.153835218E0,-8.353217091E0,9.763454212E0
1.280082537E1,4.667338166E0,-2.516965845E0,-8.030482947E0,9.623295640E0
1.281076138E1,5.030473062E0,-2.197607883E0,-7.564273918E0,9.346302988E0
1.282069638E1,5.452344993E0,-2.167609620E0,-6.491201087E0,8.749987940E0
1.283063238E1,6.471074971E0,-1.857252862E0,-5.035168376E0,8.406968541E0
1.284056738E1,7.824805967E0,-1.001528054E0,-4.022544061E0,8.855027249E0
1.285050337E1,8.899762770E0,-2.412227887E-1,-3.864224850E0,9.705472656E0
1.286043938E1,9.608435367E0,3.089946494E-1,-3.514379506E0,1.023564220E1
1.287037437E1,9.913223237E0,9.142168450E-1,-3.101421654E0,1.042720498E1
1.288031038E1,9.524806734E0,1.086865827E0,-2.776159759E0,9.980495161E0
1.289024537E1,8.889444773E0,9.549416057E-1,-2.632816436E0,9.320185848E0
1.290018138E1,8.360493366E0,5.406787290E-1,-2.925744399E0,8.874128864E0
1.291011737E1,8.070438141E0,-1.634844951E-1,-3.022130486E0,8.619279067E0
1.292005238E1,8.237583724E0,-6.059729782E-1,-2.701986659E0,8.690553536E0
1.292998837E1,8.851690471E0,-5.837216914E-1,-2.065972733E0,9.108314803E0
1.293992438E1,9.665166807E0,-3.565047383E-1,-1.107561463E0,9.734949277E0
1.294985937E1,1.039877719E1,-2.795433936E-1,-4.571528614E-2,1.040263436E1
1.295979538E1,1.077780541E1,-2.655790731E-1,1.207748240E0,1.084851499E1
1.296973038E1,1.082907379E1,-2.894099852E-1,2.612348258E0,1.114347167E1
1.297966675E1,1.031755937E1,-7.204670155E-1,4.010882374E0,1.109316373E1
1.298960275E1,9.372261064E0,-1.392800921E0,5.661222154E0,1.103759975E1
1.299953775E1,8.826493065E0,-1.745879776E0,7.281778557E0,1.157494600E1
1.300947375E1,8.726173555E0,-1.678493539E0,8.467245982E0,1.227426984E1
1.301940875E1,8.659619962E0,-1.685330396E0,8.978401389E0,1.258733681E1
1.302934475E1,8.328824261E0,-2.109243298E0,8.669897028E0,1.220595491E1
1.303928075E1,7.775968852E0,-2.714489175E0,8.607457536E0,1.191312169E1
1.304921575E1,6.888770821E0,-3.303173398E0,8.862439992E0,1.170081025E1
1.305915175E1,5.780281405E0,-4.134797445E0,9.336375532E0,1.173354640E1
1.306908675E1,4.787904244E0,-5.143417879E0,9.974663440E0,1.220133949E1
1.307902275E1,3.811368944E0,-5.988242893E0,1.076237694E1,1.289241419E1
1.308895875E1,3.050623384E0,-6.343115673E0,1.152330903E1,1.350289119E1
1.309889375E1,2.789542866E0,-6.597492358E0,1.207240234E1,1.403749811E1
1.310882975E1,2.598186302E0,-6.892297862E0,1.254347742E1,1.454624239E1
1.311876575E1,2.389732479E0,-7.231383744E0,1.261739792E1,1.473779029E1
1.312870075E1,2.195344718E0,-7.810218333E0,1.194723217E1,1.444144748E1
1.313863675E1,1.817980038E0,-8.564580488E0,1.084310477E1,1.393664276E1
1.314857175E1,1.076045555E0,-9.399740639E0,9.795029374E0,1.361820835E1
1.315850775E1,1.679542530E-1,-1.010495227E1,9.249701085E0,1.370019121E1
1.316844375E1,-7.271252400E-1,-1.030863652E1,9.292927212E0,1.389802843E1
1.317837875E1,-1.328898456E0,-1.012935036E1,9.759668337E0,1.412872379E1
1.318831475E1,-1.719236938E0,-9.935352609E0,1.034017406E1,1.444251386E1
1.319824975E1,-2.131860913E0,-9.649575791E0,1.072104999E1,1.458081126E1
1.320818575E1,-2.021241533E0,-9.612065903E0,1.087355006E1,1.465303105E1
1.321812175E1,-1.916519655E0,-9.763786531E0,1.071284518E1,1.462086273E1
1.322805675E1,-2.082259567E0,-9.799309536E0,1.040967407E1,1.444726917E1
1.323799275E1,-2.332648451E0,-9.730429920E0,9.648165443E0,1.389998603E1
1.324792775E1,-2.346290005E0,-9.733626593E0,8.466675879E0,1.311232870E1
1.325786375E1,-2.376642902E0,-9.721016487E0,6.762435880E0,1.207796059E1
1.326779975E1,-2.600455606E0,-9.643944923E0,4.958026645E0,1.115123631E1
1.327773475E1,-3.036635674E0,-9.339947011E0,3.648022297E0,1.047682362E1
1.328767075E1,-3.255947776E0,-8.761909983E0,2.790962862E0,9.755087707E0
1.329760675E1,-3.014964724E0,-8.118700474E0,2.516362412E0,9.018613500E0
1.330754175E1,-2.627197847E0,-7.711916113E0,2.443068441E0,8.505551250E0
1.331747775E1,-2.227022009E0,-7.465918488E0,1.950213358E0,8.031369624E0
1.332741275E1,-1.924514553E0,-7.301983611E0,8.055820101E-1,7.594187468E0
1.333734875E1,-1.430658719E0,-6.984906063E0,-5.249264762E-1,7.149212886E0
1.334728475E1,-6.721853864E-1,-6.355853832E0,-1.541388319E0,6.574540979E0
1.335721975E1,2.515302604E-1,-5.703474135E0,-2.144894064E0,6.098643720E0
1.336715575E1,2.814469546E-1,-5.121250500E0,-2.551030846E0,5.728366037E0
1.337709075E1,-8.554418027E-2,-4.962798557E0,-2.684402035E0,5.642933777E0
1.338702675E1,-4.615721869E-1,-5.133978719E0,-3.032462224E0,5.980519502E0
1.339696275E1,-7.515435049E-1,-5.319841239E0,-3.666113582E0,6.504299905E0
1.340689775E1,-7.935423008E-1,-5.141191844E0,-4.492799655E0,6.873631624E0
1.341683375E1,-4.995831817E-1,-4.604579415E0,-5.760446481E0,7.391513959E0
1.342676875E1,5.169081894E-1,-3.898167937E0,-7.083653841E0,8.101917000E0
1.343670475E1,1.237702941E0,-3.044268045E0,-8.048320463E0,8.693384771E0
1.344664075E1,1.484421820E0,-2.331398901E0,-8.715358545E0,9.143106887E0
1.345657575E1,1.539611935E0,-2.077156702E0,-8.722504427E0,9.097640813E0
1.346651175E1,1.653663630E0,-2.258148492E0,-7.705783553E0,8.198349723E0
1.347644675E1,9.823839775E-1,-2.020985425E0,-6.347731465E0,6.733732629E0
1.348638275E1,6.456115454E-2,-2.142747844E0,-5.879761840E0,6.258365262E0
1.349631875E1,-5.934038034E-1,-2.468810808E0,-5.713372886E0,6.252182388E0
1.350625375E1,-1.047531900E0,-2.345767849E0,-5.859659112E0,6.398089933E0
1.351618975E1,-8.765929359E-1,-1.827219223E0,-6.264303392E0,6.583968579E0
1.352612575E1,-3.639894667E-1,-1.310074514E0,-6.369310030E0,6.512825333E0
1.353606075E1,1.857148781E-1,-9.476611644E-1,-5.971200013E0,6.048783456E0
1.354599675E1,3.685701755E-1,-7.947535515E-1,-5.235464163E0,5.308254156E0
1.355593175E1,4.561202431E-1,-4.193956357E-1,-4.210318036E0,4.255668730E0
1.356586775E1,2.279902473E-1,-4.365975595E-1,-3.504538057E0,3.538980640E0
1.357580375E1,-1.187388235E-1,-9.067873728E-1,-3.281880178E0,3.406919393E0
1.358573875E1,-5.330292553E-1,-1.125774955E0,-2.963157223E0,3.214310216E0
1.359567475E1,-9.282941629E-1,-1.284523351E0,-2.393353660E0,2.870517729E0
1.360560975E1,-9.427645598E-1,-1.367923357E0,-1.968180975E0,2.575607827E0
1.361554575E1,-1.070505318E0,-1.282176864E0,-1.591800381E0,2.307333439E0
1.362548175E1,-2.581324978E-1,-1.430991426E0,-1.100981006E0,1.823877195E0
1.363541675E1,1.776035621E0,-8.321213526E-1,-2.286922055E-1,1.974595806E0
1.364535275E1,1.861977851E0,1.592196822E-2,9.385015011E-2,1.864409525E0
1.365528775E1,1.243778198E0,3.654053700E-1,-8.989509344E-3,1.296374214E0
1.366522375E1,9.292120296E-1,4.420214367E-1,-2.653571713E-1,1.062653459E0
1.367515975E1,6.727233303E-1,2.885396272E-1,-5.951068050E-1,9.433789826E-1
1.368509475E1,8.626172134E-1,4.023732215E-1,-6.883441669E-1,1.174661806E0
1.369503075E1,7.958876190E-1,7.870948684E-1,-2.019356391E0,2.308842928E0
1.370496675E1,1.781466807E-1,1.182357876E0,-1.509623612E0,1.925790704E0
1.371490175E1,-1.071011395E0,1.818655976E0,8.511897075E-1,2.275763363E0
1.372483775E1,-8.751600757E-1,2.022229420E0,2.235581163E0,3.138971189E0
1.373477275E1,-2.374684377E-1,1.815584141E0,3.274172963E0,3.751392491E0
1.374470875E1,5.153794348E-2,1.689605003E0,4.017202629E0,4.358364165E0
1.375464475E1,1.549769425E-1,1.377274225E0,3.962220676E0,4.197629668E0
1.376457975E1,5.381470308E-2,1.217715404E0,4.121518126E0,4.297980746E0
1.377451575E1,1.148743987E-1,1.122995773E0,4.513890270E0,4.652904577E0
1.378445075E1,-9.628712341E-2,8.693371260E-1,4.783565025E0,4.862870819E0
1.379438675E1,-5.507695614E-1,6.672646621E-1,4.521791613E0,4.603823262E0
1.380432275E1,-7.006883700E-1,6.463076565E-1,3.651629444E0,3.773999918E0
1.381425775E1,-7.790337507E-1,9.189957744E-1,2.650602497E0,2.911552921E0
1.382419375E1,-1.087915110E0,1.642317108E0,2.353737604E0,3.069339584E0
1.383412875E1,-1.231168532E0,2.243404445E0,2.465412991E0,3.553435053E0
1.384406475E1,-1.236137349E0,1.925778136E0,2.379432024E0,3.301265474E0
1.385400075E1,-1.079403318E0,1.100949723E0,2.027190490E0,2.546900685E0
1.386393575E1,-1.139202501E0,3.217746162E-1,1.422922268E0,1.850953544E0
1.387387175E1,-1.626675368E0,-1.050937611E-1,1.136642590E0,1.987227674E0
1.388380675E1,-2.087873771E0,-2.169182521E-1,1.057744939E0,2.350552014E0
1.389374275E1,-2.166068002E0,3.788381785E-2,8.223717052E-1,2.317235636E0
1.390367875E1,-1.879798117E0,4.351047653E-1,5.013133729E-1,1.993557678E0
1.391361375E1,-1.473162422E0,8.135526422E-1,1.005270857E-1,1.685876958E0
1.392354975E1,-1.170433356E0,1.139586663E0,-1.200848526E-1,1.637984242E0
1.393348575E1,-8.187572488E-1,1.316108841E0,5.664607108E-2,1.551036650E0
1.394342075E1,-4.553698991E-1,1.104688141E0,8.484695828E-1,1.465468617E0
1.395335675E1,-2.232721290E-1,5.407464105E-1,1.941675546E0,2.027895720E0
1.396329175E1,-5.915471663E-1,1.243787554E-1,2.282703289E0,2.361383584E0
1.397322800E1,-1.358693235E0,-1.666131940E-1,1.793705322E0,2.256365672E0
1.398316400E1,-1.882697313E0,-2.513200530E-1,6.054534531E-1,1.993560841E0
1.399309900E1,-2.090665232E0,-2.095437437E-2,-5.974620634E-1,2.174461109E0
1.400303500E1,-1.947102786E0,2.503336278E-1,-1.351057064E0,2.383113798E0
1.401297000E1,-1.546953406E0,5.619823283E-1,-1.813301096E0,2.448867053E0
1.402290600E1,-1.177344108E0,1.016996278E0,-1.885974385E0,2.444855816E0
1.403284200E1,-8.522981934E-1,1.361441134E0,-1.333403735E0,2.087558309E0
1.404277700E1,-6.969547766E-1,1.286600282E0,-6.701616651E-1,1.609410732E0
1.405271300E1,-5.837651069E-1,9.979606676E-1,-1.682495373E-1,1.168338607E0
1.406264900E1,-4.800457339E-1,6.932961738E-1,5.830317199E-2,8.452826457E-1
1.407258400E1,-3.449814843E-1,4.655196422E-1,3.408394629E-1,6.722293517E-1
1.408252000E1,-1.532255553E-1,3.002650487E-1,8.624491060E-1,9.259890014E-1
1.409245500E1,-5.174711300E-1,3.112630767E-1,6.267770791E-1,8.703508374E-1
1.410239100E1,-8.035794119E-1,2.970145816E-1,-6.858550072E-2,8.594541895E-1
1.411232700E1,-8.508430407E-1,2.455935824E-1,-7.856576228E-1,1.183853026E0
1.412226200E1,-8.716821519E-1,2.954691625E-1,-1.305751668E0,1.597535357E0
1.413219800E1,-7.217106452E-1,1.891784763E-1,-1.467524829E0,1.646293982E0
1.414213300E1,-6.916042089E-1,-7.453153431E-2,-1.437225727E0,1.596711972E0
1.415206900E1,-6.773451888E-1,-3.101480126E-1,-1.154431574E0,1.373936153E0
1.416200500E1,-4.907442382E-1,-2.384921390E-1,1.621543998E-1,5.692121371E-1
1.417194000E1,-4.798470747E-1,5.550761819E-2,1.733308262E0,1.799358731E0
1.418187600E1,-7.144568087E-1,2.360228598E-2,1.983521730E0,2.108403199E0
1.419181100E1,-7.580840541E-1,-9.415654421E-2,1.211623775E0,1.432336922E0
1.420174700E1,-5.142198589E-1,-7.792876661E-2,1.354361326E-1,5.374364166E-1
1.421168300E1,-2.774044821E-1,2.194208604E-1,-7.845834893E-1,8.606218754E-1
1.422161800E1,-6.125468566E-1,4.977752227E-1,-1.433950117E0,1.636828262E0
1.423155400E1,-1.362671681E0,8.111596692E-1,-1.837940093E0,2.427525058E0
1.424149000E1,-2.222563946E0,1.142093364E0,-1.846450716E0,3.107015930E0
1.425142500E1,-2.767598558E0,1.289054359E0,-1.385839811E0,3.352881581E0
1.426136100E1,-2.545139484E0,1.020408713E0,-8.352174532E-1,2.866453755E0
1.427129600E1,-1.837369844E0,3.434344572E-1,-3.426684719E-1,1.900341246E0
1.428123200E1,-1.020691353E0,-3.074349046E-1,1.554651850E-1,1.077263423E0
1.429116800E1,-4.794254174E-1,-5.876995522E-1,7.978291869E-1,1.100804663E0
1.430110300E1,-4.346690746E-1,-5.443623286E-1,1.444633564E0,1.603818470E0
1.431103900E1,-5.746522214E-1,-2.510344166E-1,1.521565381E0,1.645723142E0
1.432097400E1,-5.751647298E-1,3.866512281E-1,8.086044359E-1,1.064967029E0
1.433091000E1,-9.177121644E-1,1.148452211E0,1.332475197E-1,1.476107381E0
1.434084600E1,-1.316771623E0,1.350892757E0,-2.900546408E-1,1.908646233E0
1.435078100E1,-1.529045870E0,1.096733589E0,-5.732890892E-1,1.967095884E0
1.436071700E1,-1.446158518E0,7.886449653E-1,-2.881121957E-1,1.672227251E0
1.437065200E1,-1.105351361E0,3.700895745E-1,1.698692161E-1,1.177974310E0
1.438058800E1,-8.285450493E-1,1.440987825E-2,6.098780411E-1,1.028905131E0
1.439052400E1,-6.627048571E-1,-2.735590607E-1,1.108146184E0,1.319848572E0
1.440045900E1,-7.397091790E-1,-4.761270761E-1,1.515835109E0,1.752604559E0
1.441039500E1,-9.989932859E-1,-4.335260171E-1,1.609054930E0,1.942933390E0
1.442033000E1,-1.085705886E0,-1.370634127E-1,9.798845851E-1,1.468917101E0
1.443026600E1,-9.472739325E-1,4.461676973E-1,-1.341819048E-1,1.055650653E0
1.444020200E1,-7.115026492E-1,1.056486034E0,-1.066034537E0,1.660972123E0
1.445013700E1,-6.184073746E-1,1.348959668E0,-1.431549250E0,2.061905216E0
1.446007300E1,-5.830342050E-1,1.220688128E0,-9.844255328E-1,1.673051709E0
1.447000900E1,-4.853311783E-1,9.553432363E-1,-3.017560887E-1,1.113231238E0
1.447994400E1,-5.964273255E-1,5.621863961E-1,-1.177781260E-1,8.280403285E-1
1.448988000E1,-1.084808412E0,2.917123264E-1,-7.395172441E-1,1.344913055E0
1.449981500E1,-1.835924997E0,3.718554336E-1,-1.556673818E0,2.435596525E0
1.450975100E1,-1.809046369E0,3.372124350E-1,-7.006011003E-1,1.969061425E0
1.451968700E1,-1.463169530E0,1.724384826E-1,-5.245893842E-1,1.563903490E0
1.452962200E1,-1.265593283E0,2.611144316E-1,-4.775941426E-1,1.377680394E0
1.453955800E1,-1.156088090E0,4.332096827E-1,-6.501922542E-1,1.395335181E0
1.454949300E1,-1.432157945E0,4.159071869E-1,-1.195107729E0,1.911109011E0
1.455942900E1,-1.531771842E0,3.527560884E-1,-1.239866996E0,2.002006993E0