"Time (s)","Linear Acceleration x (m/s^2)","Linear Acceleration y (m/s^2)","Linear Acceleration z (m/s^2)","Absolute acceleration (m/s^2)"
6.426791660E-3,4.089630336E-2,3.187603766E-1,-2.851540893E-1,4.296435033E-1
1.636179164E-2,-1.322368285E-1,2.891196710E-1,-3.871236831E-1,5.009406242E-1
2.629779166E-2,1.703978044E-1,3.741761935E-1,-5.482635909E-1,6.853000807E-1
3.623279167E-2,4.731321323E-1,4.604278868E-1,-5.239584696E-1,8.428406323E-1
4.616879165E-2,5.983669201E-1,4.605688047E-1,-2.411175388E-1,7.926564593E-1
5.610379166E-2,6.936489071E-1,3.297624975E-1,1.575573188E-1,7.840385321E-1
6.603979165E-2,7.376910125E-1,2.349855638E-1,3.388338679E-1,8.451122027E-1
7.597479166E-2,5.992005868E-1,1.987696642E-1,4.113171226E-1,7.534802572E-1
8.591079165E-2,4.254290852E-1,-2.183642685E-2,2.065201485E-1,4.734102954E-1
9.584579166E-2,2.482667832E-1,3.125863016E-2,-4.973583162E-2,2.551218347E-1
1.057817916E-1,8.140113562E-2,-3.778002977E-2,-1.323143041E-1,1.598766731E-1
1.157177917E-1,-5.355115445E-1,-6.495356119E-1,1.011486447E-1,8.478798109E-1
1.256527916E-1,-5.546357404E-1,-6.700312722E-1,-2.531844378E-3,8.698098185E-1
1.355887917E-1,-1.160833105E-1,-2.492223644E-1,-7.448966825E-1,7.940139731E-1
1.455237917E-1,5.786293513E-1,3.692294490E-1,-1.401996837E0,1.561005267E0
1.554597917E-1,1.003677929E0,9.370174778E-1,-1.564048326E0,2.081254022E0
1.653947917E-1,1.063544208E0,1.147930055E0,-1.385662640E0,2.090198709E0
1.753307917E-1,9.973662981E-1,7.171744484E-1,-1.545444825E0,1.974203239E0
1.852657917E-1,8.175351807E-1,1.095241964E-2,-1.710493011E0,1.895856026E0
1.952017916E-1,3.648946157E-1,-4.070229274E-1,-2.091571258E0,2.161824709E0
2.051377917E-1,-5.602829082E-1,-1.661761147E-1,-2.007815157E0,2.091136806E0
2.150727916E-1,-2.341766746E-1,-5.920840868E-1,-1.961168994E0,2.061937463E0
2.250087917E-1,3.352208003E-1,-6.767909458E-1,-2.447104189E0,2.561003296E0
2.349437916E-1,1.750798892E-1,-3.772202539E-1,-2.148588043E0,2.188464911E0
2.448797917E-1,9.373735001E-1,-5.796233779E-1,-5.263996822E-1,1.221363568E0
2.548147917E-1,9.997562014E-1,3.359172767E-1,1.794756067E-1,1.069843153E0
2.647507917E-1,7.890668419E-1,1.207878926E0,6.113614798E-2,1.444069115E0
2.746857917E-1,1.337604083E0,1.199973490E0,1.167373216E-1,1.800763355E0
2.846217917E-1,1.510232161E0,1.047561429E0,1.046704227E-1,1.840962255E0
2.945577917E-1,1.166778701E0,9.116695055E-1,9.959562421E-3,1.480747452E0
3.044927916E-1,7.551286521E-1,6.317720631E-1,-3.004018736E-1,1.029367042E0
3.144287917E-1,4.410118053E-1,4.868046767E-1,-6.628777885E-1,9.332079983E-1
3.243637916E-1,6.094743640E-1,4.521210399E-1,-5.750356525E-1,9.521231206E-1
3.342997917E-1,1.102813743E0,4.663654420E-1,-1.837510908E-1,1.211387362E0
3.442347916E-1,1.428057293E0,7.149118683E-1,2.499345553E-1,1.616451018E0
3.541707917E-1,1.615757301E0,8.820609596E-1,6.621047866E-1,1.956293930E0
3.641057917E-1,1.623280621E0,8.983977878E-1,6.296679425E-1,1.959244823E0
3.740417917E-1,1.585243752E0,8.227427110E-1,4.261556017E-1,1.836167726E0
3.839767917E-1,1.714635618E0,6.752054733E-1,2.776181978E-1,1.863585146E0
3.939127917E-1,1.870368605E0,4.935544100E-1,-2.050092280E-2,1.934501218E0
4.038487916E-1,1.881741293E0,5.399883190E-1,-3.096849132E-1,1.982029875E0
4.137837916E-1,1.774279995E0,6.172636592E-1,-5.177943349E-1,1.948639243E0
4.237197917E-1,1.600184119E0,4.483586490E-1,-7.502767056E-1,1.823329325E0
4.336547916E-1,1.271009120E0,1.834967369E-1,-9.191758686E-1,1.579246502E0
4.435907917E-1,6.297488534E-1,-6.550591841E-2,-1.154419295E0,1.316646707E0
4.535257916E-1,1.264475003E-1,-1.644282357E-1,-1.267307979E0,1.284170989E0
4.634617917E-1,1.064073381E-1,-2.331906147E-1,-1.071361935E0,1.101597377E0
4.733967916E-1,1.183486681E-1,-2.403198324E-1,-7.786193293E-1,8.234124660E-1
4.833327917E-1,-1.950378980E-1,-3.296318123E-1,8.662708461E-2,3.926845619E-1
4.932687916E-1,-7.770394117E-2,-6.858911137E-1,1.264544585E0,1.440679537E0
5.032037917E-1,6.824365056E-1,-8.960004294E-1,8.904596078E-1,1.435776677E0
5.131397916E-1,1.323794713E0,-9.873652205E-2,1.432239221E0,1.952816051E0
5.230747917E-1,1.041680738E0,5.761017461E-1,2.021217560E0,2.345700834E0
5.330107917E-1,-1.438546613E-1,8.229634434E-1,2.996821398E0,3.111093294E0
5.429457916E-1,-1.109264537E0,6.304857487E-1,4.185087885E0,4.375264643E0
5.528817917E-1,-1.991465757E0,5.609421086E-1,5.476355415E0,5.854149002E0
5.628167916E-1,-2.321803036E0,5.019584669E-1,6.311855289E0,6.744052849E0
5.727527917E-1,-1.972080629E0,4.058130654E-1,6.755034474E0,7.048707470E0
5.826887916E-1,-1.295682908E0,1.730718823E-1,7.240359805E0,7.357415184E0
5.926237917E-1,-1.066545072E0,-3.362516644E-1,8.241280333E0,8.316807387E0
6.025597916E-1,-1.694736373E0,-1.306464882E0,9.774826659E0,1.000630891E1
6.124947917E-1,-2.676220026E0,-2.687051700E0,1.170474345E1,1.230379697E1
6.224307916E-1,-2.744054452E0,-4.141872869E0,1.358212886E1,1.446233626E1
6.323657917E-1,-2.060736405E0,-5.008649499E0,1.481484004E1,1.577379757E1
6.423017917E-1,-1.098153731E0,-5.575760420E0,1.515865398E1,1.618888002E1
6.522367916E-1,-1.132127662E-1,-6.079820230E0,1.460560444E1,1.582089480E1
6.621727917E-1,2.555483209E-1,-6.778119282E0,1.347983066E1,1.509019683E1
6.721077916E-1,1.301270069E-1,-7.632232597E0,1.174896712E1,1.401092915E1
6.820437917E-1,7.543748729E-2,-8.365468762E0,9.731957797E0,1.283346255E1
6.919797916E-1,4.263482675E-2,-8.848052334E0,7.766932565E0,1.177349096E1
7.019147917E-1,-2.665705416E-2,-9.065763468E0,5.659866185E0,1.068750968E1
7.118507916E-1,1.070422726E-1,-9.023600950E0,3.734212595E0,9.766328679E0
7.217857917E-1,2.586915647E-1,-9.162054246E0,2.666237367E0,9.545626277E0
7.317217916E-1,-3.719238460E-2,-9.501341273E0,2.258571246E0,9.766166768E0
7.416567917E-1,-2.972125829E-1,-9.797459477E0,1.791351233E0,9.964310651E0
7.515927917E-1,-4.338658865E-1,-9.936067139E0,1.128884504E0,1.000939808E1
7.615277916E-1,-1.510935874E-1,-1.021905016E1,6.238026005E-1,1.023918674E1
7.714637917E-1,3.542426699E-1,-1.070767507E1,5.693679464E-1,1.072865197E1
7.813997917E-1,2.628194797E-1,-1.120110757E1,3.039967418E-1,1.120831383E1
7.913347917E-1,1.093943060E-1,-1.130593996E1,-6.630084738E-1,1.132589183E1
8.012707916E-1,1.023952162E-1,-1.137193280E1,-1.946864658E0,1.153783439E1
8.112057917E-1,2.329190116E-1,-1.100724079E1,-3.111618029E0,1.144096884E1
8.211417916E-1,1.947304807E-1,-1.095542745E1,-3.798923730E0,1.159703117E1
8.310767917E-1,4.780796807E-1,-1.094388972E1,-4.526700350E0,1.185277598E1
8.410127916E-1,6.198983415E-1,-1.028258600E1,-4.806669129E0,1.136749387E1
8.509477917E-1,7.381270686E-1,-9.786084303E0,-4.288898767E0,1.071013213E1
8.608837916E-1,9.667654797E-1,-9.170136268E0,-3.842536358E0,9.989550556E0
8.708197917E-1,1.165988595E0,-8.178615723E0,-4.117410457E0,9.230512089E0
8.807547917E-1,9.952694866E-1,-6.719010363E0,-5.084072149E0,8.484306172E0
8.906907917E-1,6.881906775E-1,-5.639636573E0,-6.546526272E0,8.668108982E0
9.006257917E-1,8.385876422E-1,-5.580597237E0,-7.449861449E0,9.345947269E0
9.105617917E-1,6.281923977E-1,-5.703189960E0,-7.694598999E0,9.598325644E0
9.204967917E-1,2.849690250E-1,-5.680729635E0,-7.747343223E0,9.611098977E0
9.304327916E-1,2.273900306E-1,-5.594674993E0,-7.487468401E0,9.349560287E0
9.403677917E-1,5.207752454E-1,-5.628707542E0,-6.835334871E0,8.869913092E0
9.503037916E-1,7.256527649E-1,-5.463157665E0,-5.846702267E0,8.034711631E0
9.602397917E-1,9.456444597E-1,-4.949161681E0,-4.988113493E0,7.090114315E0
9.701747916E-1,1.407821541E0,-4.436934480E0,-4.358077176E0,6.376612403E0
9.801107917E-1,1.832522356E0,-3.828627586E0,-4.096056426E0,5.898661341E0
9.900457917E-1,2.206029628E0,-2.987191619E0,-4.612245115E0,5.921375304E0
9.999817917E-1,2.511829066E0,-2.099424654E0,-5.575839357E0,6.465821964E0
1.009916792E0,2.614297720E0,-1.456516861E0,-6.540010135E0,7.192199003E0
1.019852792E0,2.529297330E0,-9.721715230E-1,-7.358341999E0,7.841406725E0
1.029787792E0,2.330745767E0,-4.606313699E-1,-7.726644080E0,8.083661659E0
1.039723792E0,2.261250440E0,1.016848344E-1,-7.730343028E0,8.054923755E0
1.049659792E0,2.579806456E0,8.041406715E-1,-7.631555489E0,8.095843548E0
1.059594792E0,3.021581140E0,1.362393061E0,-7.709167922E0,8.391503887E0
1.069530792E0,3.187065822E0,1.268234763E0,-7.676514730E0,8.408013224E0
1.079465792E0,3.014406314E0,8.592120874E-1,-7.303767012E0,7.947949635E0
1.089401792E0,2.475212632E0,9.225766093E-1,-6.956814285E0,7.441444092E0
1.099336792E0,1.619587812E0,1.540836049E0,-7.028544418E0,7.375478090E0
1.109272792E0,7.322892085E-1,2.045808610E0,-7.338167936E0,7.653122827E0
1.119207792E0,2.798132426E-1,2.216860718E0,-7.788971305E0,8.103137719E0
1.129143792E0,5.162543245E-1,1.855047292E0,-7.915058910E0,8.145911645E0
1.139079792E0,8.323140183E-1,5.244642538E-1,-7.211087474E0,7.277883754E0
1.149014792E0,1.138351731E0,-1.221014403E0,-5.483082052E0,5.731571305E0
1.158950792E0,2.032675910E0,-2.180781643E0,-2.803744583E0,4.092500900E0
1.168885792E0,2.945348359E0,-2.472310367E0,-4.980307460E-1,3.877554658E0
1.178821792E0,3.658756908E0,-2.889346651E0,1.681246993E0,4.955947703E0
1.188756792E0,4.384682592E0,-3.504015316E0,3.365048634E0,6.544243048E0
1.198692792E0,4.400825292E0,-3.605891939E0,4.107776585E0,7.017374751E0
1.208627792E0,3.760559564E0,-3.576846480E0,3.409800299E0,6.209861275E0
1.218563792E0,2.262024611E0,-3.361223386E0,1.742332855E0,4.410249627E0
1.228498792E0,1.226659451E0,-2.728433907E0,1.875652295E-1,2.997369799E0
1.238434792E0,1.718036504E0,-1.959390271E0,-1.178804523E-1,2.608592621E0
1.248370792E0,2.476568601E0,-2.034632826E0,6.949971288E-1,3.279656047E0
1.258305792E0,2.683055713E0,-2.325667168E0,2.286375341E0,4.223153790E0
1.268241792E0,2.127468485E0,-2.633517517E0,4.773977346E0,5.852554687E0
1.278176792E0,5.387615731E-1,-3.335128724E0,7.775560132E0,8.477775829E0
1.288112792E0,-1.246291185E0,-4.487490091E0,9.800395948E0,1.085074052E1
1.298047792E0,-3.112503297E0,-5.344759734E0,1.068714550E1,1.234784241E1
1.307983792E0,-4.579766171E0,-5.451566144E0,1.093007509E1,1.304455339E1
1.317918792E0,-4.950567352E0,-4.464388035E0,1.125090596E1,1.307752892E1
1.327854792E0,-4.496311786E0,-3.576503833E0,1.267201092E1,1.391359264E1
1.337790792E0,-4.027589623E0,-3.353643640E0,1.509926030E1,1.598299301E1
1.347725792E0,-3.725311086E0,-3.482701630E0,1.744122454E1,1.817150150E1
1.357661792E0,-3.449187729E0,-4.292796521E0,1.843296026E1,1.923795784E1
1.367596792E0,-2.713062747E0,-5.139528896E0,1.776216651E1,1.868876737E1
1.377532792E0,-1.520119364E0,-5.861908536E0,1.608304264E1,1.718537155E1
1.387467792E0,-9.903630149E-2,-6.558522420E0,1.469463766E1,1.609212231E1
1.397403792E0,1.122356380E0,-7.514568492E0,1.405771566E1,1.597960553E1
1.407338792E0,1.907892673E0,-8.604091294E0,1.380319221E1,1.637676881E1
1.417274792E0,2.216936878E0,-9.785504844E0,1.321077337E1,1.658901586E1
1.427210792E0,2.177355905E0,-1.099930846E1,1.191636471E1,1.636231687E1
1.437145792E0,2.003516576E0,-1.212964074E1,1.011535797E1,1.592051287E1
1.447081792E0,1.420089877E0,-1.327321228E1,8.107258058E0,1.561801692E1
1.457016792E0,1.247815701E0,-1.427143724E1,6.371801528E0,1.567899294E1
1.466952792E0,1.677343246E0,-1.486160373E1,4.892886908E0,1.573598068E1
1.476887792E0,1.594223467E0,-1.535061690E1,3.201617203E0,1.576176831E1
1.486823792E0,1.203667542E0,-1.600451453E1,1.262411520E0,1.609928520E1
1.496758792E0,1.091654843E0,-1.636732725E1,-5.178431591E-1,1.641186379E1
1.506694792E0,1.247462967E0,-1.621185680E1,-1.566386920E0,1.633505533E1
1.516630792E0,9.656296581E-1,-1.527582516E1,-1.805416710E0,1.541242371E1
1.526565792E0,6.728269722E-1,-1.564970783E1,-2.526216432E0,1.586656298E1
1.536501792E0,3.474310291E-1,-1.583788760E1,-4.124040030E0,1.636970061E1
1.546436792E0,3.858431429E-2,-1.519922664E1,-4.903334713E0,1.597061898E1
1.556372792E0,-3.711447045E-1,-1.455481787E1,-4.921671581E0,1.536890766E1
1.566307792E0,-2.712293838E-1,-1.364135882E1,-5.196105970E0,1.459999154E1
1.576243792E0,-1.320140496E-1,-1.230402225E1,-6.310886990E0,1.382872683E1
1.586178792E0,2.693202313E-1,-1.079980263E1,-7.406609595E0,1.309832569E1
1.596114792E0,7.981732225E-1,-9.880399307E0,-7.710185337E0,1.255811805E1
1.606049792E0,1.361420377E0,-8.871178071E0,-7.727866148E0,1.184361351E1
1.615985792E0,1.741337659E0,-7.823223710E0,-7.608634989E0,1.105108196E1
1.625921792E0,1.473528604E0,-6.937483390E0,-7.447843575E0,1.028447064E1
1.635856792E0,1.023333344E0,-6.529723129E0,-7.367813904E0,9.897938017E0
1.645792792E0,7.606711547E-1,-6.153048420E0,-7.288806326E0,9.568977120E0
1.655727792E0,3.682035550E-1,-5.667107962E0,-7.371312293E0,9.305263641E0
1.665663792E0,2.985737416E-1,-5.162397357E0,-7.628549436E0,9.215978474E0
1.675598792E0,7.309259301E-1,-4.643670391E0,-8.090404043E0,9.356952762E0
1.685534792E0,1.231657505E0,-4.138476221E0,-8.517612144E0,9.549538328E0
1.695469792E0,1.603093693E0,-3.693986090E0,-8.631769674E0,9.524856446E0
1.705405792E0,1.900748545E0,-3.318024741E0,-8.600115187E0,9.411913432E0
1.715341792E0,2.027624646E0,-2.993414226E0,-8.759523150E0,9.476340868E0
1.725276792E0,1.936184134E0,-2.724297295E0,-9.073902208E0,9.669865874E0
1.735212792E0,1.765793346E0,-2.739462633E0,-9.250816734E0,9.808174749E0
1.745147792E0,1.610641572E0,-2.836349827E0,-9.079369354E0,9.647486433E0
1.755083792E0,1.549548693E0,-2.979579713E0,-8.378731416E0,9.026745624E0
1.765018792E0,1.442509271E0,-3.047163586E0,-7.413165493E0,8.143774404E0
1.774954958E0,1.293469006E0,-2.880914381E0,-6.709341992E0,7.415389384E0
1.784889958E0,1.136390282E0,-2.614888873E0,-6.550538632E0,7.144129272E0
1.794825958E0,1.298290913E0,-2.411549610E0,-6.632096765E0,7.175363288E0
1.804761958E0,2.048916112E0,-2.416716210E0,-6.642039371E0,7.359025851E0
1.814696958E0,2.222192501E0,-2.764824346E0,-6.354059322E0,7.277119145E0
1.824632958E0,1.750599064E0,-3.455406243E0,-5.865143800E0,7.028822176E0
1.834567958E0,1.693695715E0,-4.606206111E0,-5.380893188E0,7.282839515E0
1.844503958E0,2.209386953E0,-5.559868273E0,-4.580952863E0,7.535161249E0
1.854438958E0,2.738235303E0,-5.653976870E0,-3.021232939E0,6.970884842E0
1.864374958E0,1.952792273E0,-5.234208766E0,-3.455944186E-1,5.597300650E0
1.874309958E0,1.291399238E0,-4.909402369E0,7.419438386E-1,5.130343485E0
1.884245958E0,1.749783669E0,-5.291333724E0,1.075110585E0,5.675898012E0
1.894180958E0,2.573047952E0,-4.815131219E0,3.248438782E0,6.352827634E0
1.904116958E0,3.016621240E0,-3.645665284E0,5.643731963E0,7.364956859E0
1.914052958E0,3.488285136E0,-2.955844988E0,7.376875334E0,8.678907908E0
1.923987958E0,5.151858335E0,-3.756617956E0,8.420524975E0,1.056215241E1
1.933923958E0,4.785990450E0,-2.557855424E0,8.925755398E0,1.044592927E1
1.943858958E0,2.712344416E0,-1.106247008E0,7.137685037E0,7.715383488E0
1.953794958E0,1.034494217E0,-1.066014656E0,4.331329672E0,4.578971747E0
1.963729958E0,-2.640046372E-1,-9.298789045E-1,3.769128658E0,3.891105764E0
1.973665958E0,-1.165088563E0,-1.337363908E0,6.309727487E0,6.554283679E0
1.983600958E0,-1.536416431E0,-2.195124278E0,9.574629105E0,9.942467930E0
1.993536958E0,-1.695798228E0,-2.664107811E0,1.148483669E1,1.191111564E1
2.003472958E0,-2.084305654E0,-2.258913162E0,1.204627230E1,1.243220395E1
2.013407958E0,-2.527212798E0,-1.913107805E0,1.165291140E1,1.207630448E1
2.023343958E0,-2.844121946E0,-1.711787293E0,1.043471301E1,1.094999913E1
2.033278958E0,-2.943372000E0,-1.251848525E0,9.353481562E0,9.885250669E0
2.043214958E0,-2.809916904E0,-8.546701895E-1,9.594211430E0,1.003369260E1
2.053149958E0,-2.481154865E0,-9.513381860E-1,1.124057276E1,1.155039609E1
2.063085958E0,-2.011596843E0,-1.498817081E0,1.273265707E1,1.297742388E1
2.073020958E0,-1.833348567E0,-2.135844329E0,1.315564465E1,1.345340047E1
2.082956958E0,-1.692557847E0,-2.750377923E0,1.248293652E1,1.289391465E1
2.092892958E0,-1.360419041E0,-3.411553879E0,1.151793427E1,1.208934447E1
2.102827958E0,-9.268389371E-1,-4.307348487E0,1.100871195E1,1.185765661E1
2.112763958E0,-2.902250506E-1,-5.311577954E0,1.087167661E1,1.210332364E1
2.122698958E0,3.192956161E-1,-6.029427756E0,1.102527127E1,1.257030450E1
2.132634958E0,9.883496723E-1,-6.732948371E0,1.139132568E1,1.326920230E1
2.142569958E0,1.639821517E0,-7.770808684E0,1.165590283E1,1.410441608E1
2.152505958E0,2.099477863E0,-9.206539278E0,1.132950775E1,1.474875990E1
2.162440958E0,2.407973599E0,-1.053208669E1,1.019060462E1,1.485165343E1
2.172376958E0,2.399679616E0,-1.164732731E1,8.508493411E0,1.462235124E1
2.182312958E0,2.047210772E0,-1.261301251E1,6.721480812E0,1.443805599E1
2.192247958E0,1.519579812E0,-1.336055097E1,4.970941390E0,1.433609791E1
2.202183958E0,1.111105752E0,-1.377493028E1,3.262194942E0,1.419947802E1
2.212118958E0,9.845122178E-1,-1.394638584E1,1.808295295E0,1.409754852E1
2.222054958E0,7.514170589E-1,-1.436681936E1,4.091548222E-1,1.439227340E1
2.231989958E0,5.396521041E-1,-1.456841498E1,-8.130550441E-1,1.460106154E1
2.241925958E0,6.333185054E-1,-1.452318794E1,-1.534034568E0,1.461770646E1
2.251860958E0,7.471889372E-1,-1.443759172E1,-2.029683158E0,1.459869719E1
2.261796958E0,1.251023337E0,-1.389214941E1,-2.684261117E0,1.420429978E1
2.271732958E0,1.670161111E0,-1.246702391E1,-2.924531686E0,1.291390758E1
2.281667958E0,2.242594606E0,-1.231456712E1,-2.344920149E0,1.273485156E1
2.291603958E0,3.413467965E0,-1.328488917E1,-2.174823330E0,1.388776081E1
2.301538958E0,4.187091141E0,-1.259618656E1,-2.178635715E0,1.345147210E1
2.311474958E0,4.227168835E0,-1.207950554E1,-2.434963031E0,1.302737331E1
2.321409958E0,3.513940380E0,-1.150646437E1,-3.482944289E0,1.252507087E1
2.331345958E0,2.565433123E0,-1.074090246E1,-4.868139153E0,1.206843865E1
2.341280958E0,1.385797565E0,-9.711705381E0,-6.094309630E0,1.154895087E1
2.351216958E0,4.966024174E-1,-8.812298364E0,-7.155575763E0,1.136245928E1
2.361152958E0,1.461388761E-1,-8.249541864E0,-8.034312873E0,1.151635710E1
2.371087958E0,2.232132183E-1,-8.089352714E0,-8.448206863E0,1.169870295E1
2.381023958E0,3.445530295E-1,-7.351051691E0,-8.544260829E0,1.127657177E1
2.390958958E0,3.443322971E-1,-5.999316350E0,-9.121284535E0,1.092282898E1
2.400894958E0,5.963386671E-1,-5.167813048E0,-9.817566297E0,1.111064892E1
2.410829958E0,1.073251755E0,-4.952957109E0,-9.938942800E0,1.115644376E1
2.420765958E0,1.566521698E0,-4.663195998E0,-9.353642360E0,1.056834957E1
2.430700958E0,1.924662195E0,-4.337870952E0,-8.506702409E0,9.740915503E0
2.440636958E0,2.282683994E0,-4.018093745E0,-7.989729023E0,9.229923804E0
2.450571958E0,2.508326291E0,-3.547046730E0,-7.811783048E0,8.938523126E0
2.460507958E0,2.693844118E0,-3.039634126E0,-7.704676090E0,8.709661613E0
2.470443958E0,2.886996947E0,-2.512222876E0,-7.793823910E0,8.682724589E0
2.480378958E0,3.088239984E0,-1.921397402E0,-8.380008448E0,9.135290678E0
2.490314958E0,3.033695109E0,-1.414450237E0,-9.064828498E0,9.663078764E0
2.500249958E0,2.653704737E0,-1.200445653E0,-9.530548700E0,9.965669928E0
2.510185958E0,2.113736883E0,-1.292551578E0,-9.727391707E0,1.003796407E1
2.520120958E0,1.750781204E0,-1.808910422E0,-9.641556920E0,9.964788587E0
2.530056958E0,1.760889871E0,-2.575936477E0,-9.001318381E0,9.526799802E0
2.539991958E0,2.042839978E0,-3.059488347E0,-8.019558594E0,8.823093798E0
2.549927958E0,2.328334668E0,-3.021458641E0,-6.977239194E0,7.951869052E0
2.559862958E0,2.560000183E0,-3.044301374E0,-6.099476230E0,7.281825463E0
2.569798958E0,2.571182983E0,-3.384570149E0,-5.497329962E0,6.948880035E0
2.579734958E0,2.298985446E0,-4.015199958E0,-5.344192554E0,7.068773503E0
2.589669958E0,1.910896534E0,-5.196455049E0,-4.939131367E0,7.419547783E0
2.599605958E0,1.614815168E0,-6.328503481E0,-3.879245762E0,7.596455227E0
2.609540958E0,9.254206949E-1,-5.865049660E0,-1.781962359E-1,5.940283232E0
2.619476958E0,-2.035271050E-1,-4.121554964E0,3.253862659E0,5.255117583E0
2.629411958E0,4.034575877E-1,-4.466759373E0,4.193615465E0,6.140124428E0
2.639347958E0,2.267235504E0,-5.010859162E0,3.976869121E0,6.787087326E0
2.649282958E0,3.357253419E0,-4.286783829E0,3.023208713E0,6.227957694E0
2.659218958E0,2.963474143E0,-3.570791688E0,2.308552076E0,5.182870340E0
2.669154958E0,2.254952550E0,-3.969897778E0,2.229928660E0,5.081090552E0
2.679089958E0,1.643381594E0,-4.287714414E0,3.596261575E0,5.832520490E0
2.689025958E0,1.737045949E0,-4.369669573E0,6.017910495E0,7.637184529E0
2.698960958E0,1.802408610E0,-4.252830802E0,8.116811239E0,9.339050879E0
2.708896958E0,1.777667433E0,-3.919145992E0,8.245955767E0,9.301375883E0
2.718831958E0,1.141293026E0,-3.437019088E0,6.878175082E0,7.773348213E0
2.728767958E0,2.638059050E-1,-2.878672559E0,5.531605756E0,6.241394996E0
2.738702958E0,-5.483132923E-1,-1.947109364E0,5.249460644E0,5.625719455E0
2.748638958E0,-1.567950465E0,-1.535581303E0,5.864661990E0,6.261847879E0
2.758574958E0,-2.371397511E0,-1.809440910E0,7.034899172E0,7.641165417E0
2.768509958E0,-2.971200069E0,-1.907314237E0,8.329844016E0,9.047219395E0
2.778445542E0,-3.257721822E0,-1.415607986E0,9.500673521E0,1.014295296E1
2.788380542E0,-3.181518568E0,-8.049142581E-1,1.112657896E1,1.160046148E1
2.798316542E0,-2.578121873E0,-1.119224027E0,1.329081473E1,1.358473890E1
2.808251542E0,-1.640490146E0,-1.720708536E0,1.506736491E1,1.525377105E1
2.818187542E0,-9.220541605E-1,-1.969411960E0,1.571353603E1,1.586329039E1
2.828122542E0,-4.328793881E-1,-2.094790589E0,1.533079952E1,1.547930703E1
2.838058542E0,-4.713513628E-3,-2.331984939E0,1.426721087E1,1.445653769E1
2.847994542E0,2.049698324E-1,-2.909015515E0,1.277990374E1,1.310840660E1
2.857929542E0,5.070573851E-2,-3.531837245E0,1.104296962E1,1.159412021E1
2.867865542E0,-2.969581559E-2,-4.194399284E0,9.422531916E0,1.031396989E1
2.877800542E0,-1.031229571E-3,-4.739250732E0,8.345609279E0,9.597379476E0
2.887736542E0,1.728634290E-1,-5.426525443E0,7.921678542E0,9.603647801E0
2.897671542E0,3.834283524E-1,-6.307338899E0,7.892376975E0,1.011034894E1
2.907607542E0,5.900911365E-1,-7.082871484E0,8.029064997E0,1.072292687E1
2.917542542E0,8.026844224E-1,-7.683239028E0,8.260356874E0,1.130972855E1
2.927478542E0,1.172970390E0,-8.573856511E0,8.285829100E0,1.198089474E1
2.937414542E0,1.643694566E0,-9.560839616E0,8.050657010E0,1.260652467E1
2.947349542E0,2.106981303E0,-1.060821510E1,7.518863856E0,1.317220223E1
2.957285542E0,2.338410590E0,-1.189304134E1,6.836875028E0,1.391601439E1
2.967220542E0,2.298415927E0,-1.321633758E1,5.829434854E0,1.462657190E1
2.977156542E0,2.251017228E0,-1.423544178E1,4.266689288E0,1.503061937E1
2.987091542E0,1.954307871E0,-1.459200031E1,2.444902128E0,1.492391834E1
2.997027542E0,1.550653963E0,-1.437516100E1,7.997412264E-1,1.448065494E1
3.006962542E0,1.241664722E0,-1.415701190E1,-3.327931094E-1,1.421525479E1
3.016898542E0,9.761970386E-1,-1.446467134E1,-9.462297660E-1,1.452842140E1
3.026833542E0,7.943205652E-1,-1.496725707E1,-1.459549811E0,1.505921694E1
3.036769542E0,1.012468194E0,-1.499485944E1,-2.357271076E0,1.521274559E1
3.046705542E0,1.644390092E0,-1.453410469E1,-3.307823104E0,1.499619657E1
3.056640542E0,2.276468550E0,-1.387642624E1,-3.708381935E0,1.454268239E1
3.066576542E0,2.519443310E0,-1.325337150E1,-3.964183586E0,1.406108823E1
3.076511542E0,2.357490932E0,-1.277102533E1,-4.381420430E0,1.370597302E1
3.086447542E0,2.007652312E0,-1.224674760E1,-4.486018932E0,1.319613051E1
3.096382542E0,1.311310031E0,-1.165233837E1,-4.208784311E0,1.245834615E1
3.106318542E0,7.323565976E-1,-1.080374716E1,-4.125555629E0,1.158781723E1
3.116253542E0,4.736768370E-1,-1.020758728E1,-3.813935287E0,1.090712199E1
3.126189542E0,4.271926785E-1,-9.877355247E0,-3.633558040E0,1.053315643E1
3.136125542E0,9.109559260E-1,-9.364413516E0,-4.266873475E0,1.033093851E1
3.146060542E0,1.179043528E0,-8.346019753E0,-5.079451679E0,9.841088289E0
3.155996542E0,1.200478543E0,-7.281708391E0,-5.794163865E0,9.382790668E0
3.165931542E0,1.429766141E0,-6.550047466E0,-6.278292271E0,9.185004456E0
3.175867542E0,1.680390083E0,-6.185833173E0,-6.223368790E0,8.934123459E0
3.185802542E0,2.053714045E0,-5.724277943E0,-5.854783119E0,8.441776159E0
3.195738542E0,2.316048498E0,-4.924485261E0,-5.890395001E0,8.019438198E0
3.205673542E0,2.361838629E0,-4.209049190E0,-6.888395430E0,8.410967150E0
3.215609542E0,2.329625148E0,-3.691565927E0,-8.205647986E0,9.294486064E0
3.225544542E0,2.418159010E0,-2.877042940E0,-9.451741682E0,1.017154314E1
3.235480542E0,2.863459565E0,-1.921969260E0,-1.043041414E1,1.098575922E1
3.245416542E0,3.652774037E0,-1.185465086E0,-1.118177316E1,1.182286500E1
3.255351542E0,4.302238605E0,-8.299385870E-1,-1.152687115E1,1.233153736E1
3.265287542E0,4.460328605E0,-7.102647936E-1,-1.149563299E1,1.235105603E1
3.275222542E0,4.188593291E0,-7.598316407E-1,-1.133708106E1,1.210995726E1
3.285158542E0,3.923235243E0,-1.066035706E0,-1.099089315E1,1.171870040E1
3.295093542E0,3.818231821E0,-1.534336284E0,-1.020439820E1,1.100285530E1
3.305029542E0,3.571861144E0,-1.735548331E0,-9.373769646E0,1.018026902E1
3.314964542E0,3.111325960E0,-1.626687793E0,-8.725294719E0,9.405170404E0
3.324900542E0,2.642657008E0,-1.479652539E0,-8.062497622E0,8.612599816E0
3.334836542E0,2.108550403E0,-1.172253887E0,-7.153308797E0,7.549171526E0
3.344771542E0,1.708311415E0,-9.706740510E-1,-6.342215202E0,6.639595595E0
3.354707542E0,1.799254622E0,-1.321457874E0,-6.296364845E0,6.680402560E0
3.364642542E0,1.664000338E0,-1.768158252E0,-6.356195894E0,6.804153656E0
3.374578542E0,1.264609196E0,-2.787577032E0,-6.119549137E0,6.842419438E0
3.384513542E0,7.710704277E-1,-4.030563517E0,-5.385255795E0,6.770596122E0
3.394449542E0,5.210659982E-1,-4.649324648E0,-4.391506000E0,6.416623287E0
3.404384542E0,6.492178157E-1,-5.020809368E0,-2.996482844E0,5.882934635E0
3.414320542E0,9.437933774E-1,-5.173998817E0,-1.345486422E0,5.428751552E0
3.424255542E0,1.182475843E0,-5.220180126E0,5.660110599E-1,5.382276302E0
3.434191542E0,1.055583443E0,-5.397502788E0,2.083350073E0,5.881125767E0
3.444127542E0,8.942776204E-1,-5.476268291E0,2.386522357E0,6.040259583E0
3.454062542E0,8.082159615E-1,-5.222507903E0,2.088837685E0,5.682520982E0
3.463998542E0,4.049300627E-1,-5.212688674E0,1.642883996E0,5.480434234E0
3.473933542E0,-1.279448991E-1,-5.228587838E0,8.420271206E-1,5.297500387E0
3.483869542E0,-4.063340889E-1,-4.926531787E0,3.550604761E-1,4.955995438E0
3.493804542E0,-1.611198263E-1,-4.589083124E0,6.819005352E-1,4.642265811E0
3.503740542E0,9.591864650E-1,-4.150794550E0,1.949289790E0,4.684961554E0
3.513675542E0,2.031492433E0,-3.770187004E0,2.978971018E0,5.216851529E0
3.523611542E0,1.520579102E0,-4.137221993E0,3.724322029E0,5.770558136E0
3.533547542E0,4.159720179E-2,-4.587607580E0,4.984943717E0,6.774772136E0
3.543482542E0,-1.438693524E0,-4.442021850E0,6.743772737E0,8.202430609E0
3.553418542E0,-2.579112976E0,-4.072267613E0,8.932698966E0,1.015028562E1
3.563353542E0,-3.352334156E0,-3.348915874E0,1.160148981E1,1.253187726E1
3.573289542E0,-3.282254692E0,-2.180408737E0,1.387753137E1,1.442613098E1
3.583224542E0,-2.881271354E0,-1.332970603E0,1.557706319E1,1.589727753E1
3.593160542E0,-2.677806668E0,-1.243330886E0,1.677970330E1,1.703745765E1
3.603095542E0,-2.660655030E0,-1.654631929E0,1.743546152E1,1.771474557E1
3.613031542E0,-2.547578065E0,-2.443219007E0,1.717222689E1,1.753125350E1
3.622967542E0,-2.341442810E0,-3.210222258E0,1.608212814E1,1.656570936E1
3.632902542E0,-2.084968290E0,-3.872044916E0,1.498879120E1,1.562061734E1
3.642838542E0,-1.317539362E0,-4.816895909E0,1.422564652E1,1.507671765E1
3.652773542E0,-2.221754837E-1,-5.704167615E0,1.339812050E1,1.456353401E1
3.662709542E0,7.247658154E-1,-6.124592945E0,1.227627838E1,1.373837454E1
3.672644542E0,1.555030750E0,-6.341562653E0,1.146889952E1,1.319731767E1
3.682580542E0,2.161887389E0,-6.779168272E0,1.118268065E1,1.325455492E1
3.692515542E0,2.571195554E0,-7.456872261E0,1.092256376E1,1.347287607E1
3.702451542E0,2.424408076E0,-8.264914779E0,1.048922076E1,1.357241036E1
3.712386542E0,2.042729758E0,-9.277598151E0,9.679311222E0,1.356228735E1
3.722322542E0,1.829793752E0,-1.043741092E1,8.449935885E0,1.355319550E1
3.732258542E0,1.708561676E0,-1.152926150E1,7.122600390E0,1.365922728E1
3.742193542E0,1.776366574E0,-1.244497991E1,5.744668354E0,1.382151285E1
3.752129542E0,1.791859941E0,-1.341142876E1,4.229579349E0,1.417626625E1
3.762064542E0,1.599686667E0,-1.398876646E1,2.641526449E0,1.432558015E1
3.772001542E0,1.322049319E0,-1.414890766E1,1.162648666E0,1.425802070E1
3.781936542E0,9.991206090E-1,-1.431868274E1,4.503876328E-2,1.435356910E1
3.791872542E0,7.406751390E-1,-1.442905478E1,-5.851785251E-1,1.445989818E1
3.801807542E0,5.978146505E-1,-1.440458652E1,-1.079791866E0,1.445736649E1
3.811743542E0,6.841908165E-1,-1.424196961E1,-1.524362981E0,1.433964776E1
3.821679542E0,9.205925028E-1,-1.395523502E1,-1.975044729E0,1.412433633E1
3.831614542E0,1.107319169E0,-1.347411910E1,-2.493609727E0,1.374758636E1
3.841550542E0,1.233443099E0,-1.284757474E1,-2.942673842E0,1.323785813E1
3.851485542E0,1.306403047E0,-1.242600920E1,-2.917308036E0,1.283055259E1
3.861421542E0,1.144302954E0,-1.230023208E1,-2.441048813E0,1.259221418E1
3.871356542E0,1.144716133E0,-1.177522228E1,-2.038338207E0,1.200504300E1
3.881292542E0,1.496103680E0,-1.107110876E1,-1.806818873E0,1.131690637E1
3.891227542E0,1.753803776E0,-1.055329922E1,-1.869369024E0,1.086013318E1
3.901163542E0,1.388412878E0,-9.984314854E0,-2.668433581E0,1.042759662E1
3.911099542E0,8.751699429E-1,-9.104821115E0,-4.000590105E0,9.983406791E0
3.921034542E0,5.058837028E-1,-8.230988064E0,-5.183502882E0,9.740317498E0
3.930970542E0,5.924445677E-1,-7.756473066E0,-6.032105781E0,9.843788150E0
3.940905542E0,1.142277697E0,-7.333677859E0,-6.726827506E0,1.001687764E1
3.950841542E0,1.480490153E0,-6.655285068E0,-6.988917838E0,9.763690029E0
3.960776542E0,1.700327919E0,-5.585870256E0,-7.177961828E0,9.252902115E0
3.970712542E0,1.839214494E0,-4.663163254E0,-7.688133733E0,9.177973729E0
3.980647542E0,2.439098766E0,-3.865272671E0,-8.195765022E0,9.384034309E0
3.990583542E0,3.225936357E0,-2.958039156E0,-8.695394397E0,9.734810976E0
4.000518542E0,3.957669496E0,-2.345712301E0,-9.666677728E0,1.070561406E1
4.010454542E0,4.610759922E0,-2.105093529E0,-1.005050417E1,1.125624981E1
4.020390542E0,4.800039263E0,-1.814834236E0,-9.780681476E0,1.104516774E1
4.030325542E0,4.674112165E0,-1.661437211E0,-9.812951674E0,1.099553176E1
4.040261542E0,4.501391262E0,-1.384498460E0,-9.728708500E0,1.080865988E1
4.050196542E0,4.180334391E0,-1.211992734E0,-9.423819473E0,1.038038995E1
4.060132542E0,3.692080482E0,-1.425361726E0,-8.934989905E0,9.772264781E0
4.070067542E0,3.162947227E0,-2.130817770E0,-8.079386719E0,8.934266019E0
4.080003542E0,2.449449800E0,-2.755718477E0,-6.914633056E0,7.836194162E0
4.089938542E0,1.832766185E0,-3.080878047E0,-5.919663824E0,6.920495735E0
4.099874542E0,1.468609487E0,-3.096079053E0,-5.533471602E0,6.508596416E0
4.109809542E0,1.109890409E0,-2.944812754E0,-5.534963812E0,6.367071797E0
4.119745542E0,9.192413574E-1,-2.811186334E0,-5.586469595E0,6.321108749E0
4.129681542E0,8.691418290E-1,-2.783840661E0,-5.651228678E0,6.359368044E0
4.139616542E0,9.420387742E-1,-3.008436307E0,-5.929883587E0,6.715775862E0
4.149552542E0,1.209143971E0,-3.397398355E0,-5.908551190E0,6.922089417E0
4.159487542E0,1.098202117E0,-3.626187624E0,-5.390735806E0,6.589030058E0
4.169423542E0,-9.776398391E-3,-3.793265380E0,-4.273316522E0,5.714034644E0
4.179358542E0,-2.234411135E-1,-4.028852037E0,-3.123590788E0,5.102782974E0
4.189294542E0,2.204986484E-1,-4.083354519E0,-2.280588351E0,4.682252344E0
4.199229542E0,5.180887422E-1,-4.156956346E0,-1.522398024E0,4.457173740E0
4.209165542E0,-4.175531781E-1,-3.942412063E0,5.984367943E-1,4.009375279E0
4.219101542E0,-1.736989084E0,-4.303233801E0,1.604635604E0,4.910173892E0
4.229036542E0,-1.954255246E0,-4.323128368E0,1.739812120E0,5.053266138E0
4.238972542E0,-1.204767695E0,-3.603761213E0,1.336034982E0,4.027846764E0
4.248907542E0,3.824372128E-1,-2.353777365E0,1.208478557E0,2.673377364E0
4.258843542E0,2.131081625E0,-1.357893044E0,1.488088902E0,2.932540024E0
4.268778542E0,3.412020780E0,-1.072171775E0,1.875630661E0,4.038493344E0
4.278714542E0,3.704931493E0,-1.832140825E0,1.411135451E0,4.367443260E0
4.288649542E0,2.465828728E0,-3.135161258E0,1.080267245E-1,3.990139998E0
4.298585542E0,6.834614494E-1,-4.016331102E0,-1.071772410E0,4.212686930E0
4.308520542E0,-2.496417560E-1,-4.250123249E0,-1.720200559E0,4.591836082E0
4.318456542E0,-2.369218692E-1,-4.347848934E0,-1.150447866E0,4.503715423E0
4.328392542E0,4.686332846E-1,-4.165126368E0,9.505198681E-1,4.297834668E0
4.338327542E0,1.596043267E0,-3.476797696E0,4.227835125E0,5.701759919E0
4.348263542E0,2.311346314E0,-3.071486249E0,7.630393063E0,8.543959729E0
4.358198542E0,2.485078347E0,-2.968142852E0,1.068352607E1,1.136323967E1
4.368134542E0,1.920570606E0,-2.861691660E0,1.358098164E1,1.401145720E1
4.378069542E0,6.534741502E-1,-2.743040544E0,1.566051114E1,1.591235084E1
4.388005542E0,-9.990700306E-1,-2.521917852E0,1.666595625E1,1.688526897E1
4.397940542E0,-2.309708363E0,-1.855260569E0,1.676193478E1,1.702172736E1
4.407876542E0,-3.201780925E0,-1.450693180E0,1.587311123E1,1.625766194E1
4.417812542E0,-3.666732218E0,-1.662258891E0,1.435868705E1,1.491240838E1
4.427747542E0,-3.512539094E0,-2.390523169E0,1.259442304E1,1.329180288E1
4.437683542E0,-2.754776199E0,-3.145203266E0,1.070961752E1,1.149682577E1
4.447618542E0,-1.821167209E0,-3.216489888E0,9.297388637E0,1.000519329E1
4.457554542E0,-8.544097692E-1,-2.962178400E0,8.957470111E0,9.473161442E0
4.467489542E0,5.791287035E-2,-3.006631272E0,9.458243201E0,9.924794706E0
4.477425542E0,9.100536275E-1,-3.615433425E0,1.028506288E1,1.093993030E1
4.487360542E0,1.750570705E0,-4.164529660E0,1.102268680E1,1.191249048E1
4.497296542E0,2.308096578E0,-4.860353000E0,1.134084550E1,1.255249448E1
4.507232542E0,2.510064084E0,-5.521554392E0,1.108356567E1,1.263461169E1
4.517167542E0,2.629731445E0,-6.307524841E0,1.055788227E1,1.257653510E1
4.527103542E0,2.704869628E0,-7.695500055E0,1.017033116E1,1.303735696E1
4.537038542E0,3.050723079E0,-9.149070504E0,9.887138808E0,1.381187591E1
4.546974542E0,3.585406803E0,-1.056504862E1,9.314116936E0,1.453369081E1
4.556909542E0,3.825208426E0,-1.202736943E1,8.204249332E0,1.505322364E1
4.566845542E0,3.819286074E0,-1.329745015E1,7.040813631E0,1.552360085E1
4.576780542E0,3.597446805E0,-1.456928154E1,6.151684265E0,1.621877947E1
4.586716542E0,3.134176587E0,-1.592463923E1,5.244414496E0,1.705640879E1
4.596651542E0,2.778605357E0,-1.659060435E1,4.108290555E0,1.731608650E1
4.606587542E0,2.401368877E0,-1.701517769E1,2.458119759E0,1.735872107E1
4.616523542E0,1.696115001E0,-1.733728911E1,4.930828321E-1,1.742703447E1
4.626458542E0,1.237995302E0,-1.695211079E1,-1.187843441E0,1.703871077E1
4.636394542E0,1.356686471E0,-1.621401559E1,-2.339130967E0,1.643795710E1
4.646329542E0,1.887205224E0,-1.523439296E1,-2.795012644E0,1.560321660E1
4.656265542E0,2.564950143E0,-1.414597470E1,-2.713971112E0,1.463055736E1
4.666200542E0,2.419644349E0,-1.360570367E1,-2.510466957E0,1.404536562E1
4.676136542E0,1.700267401E0,-1.312783763E1,-2.724216603E0,1.351489498E1
4.686071542E0,1.076291942E0,-1.247586256E1,-3.169726489E0,1.291714818E1
4.696007542E0,9.106433192E-1,-1.180401631E1,-3.292272434E0,1.228833309E1
4.705943542E0,9.043763465E-1,-1.103452390E1,-3.412007039E0,1.158535310E1
4.715878542E0,8.417033310E-1,-1.033041857E1,-4.250812051E0,1.120247363E1
4.725814542E0,1.033913004E0,-9.649493346E0,-5.447915143E0,1.112930714E1
4.735749542E0,1.279124471E0,-8.887654940E0,-6.338770022E0,1.099120444E1
4.745685542E0,1.680894113E0,-7.963328844E0,-6.948239928E0,1.070131064E1
4.755620542E0,2.211780218E0,-7.059535246E0,-7.521770507E0,1.055016783E1
4.765556542E0,2.330850433E0,-5.997235326E0,-7.992498264E0,1.026059081E1
4.775491542E0,2.276878586E0,-5.171095675E0,-8.579872711E0,1.027319922E1
4.785427542E0,2.715094362E0,-4.937053267E0,-9.670750898E0,1.119239274E1
4.795362542E0,3.298168474E0,-4.800829514E0,-1.059708668E1,1.209231679E1
4.805298542E0,3.345844624E0,-4.466259436E0,-1.086268593E1,1.221229279E1
4.815234542E0,3.176565977E0,-4.230065253E0,-1.073135513E1,1.196436402E1
4.825169542E0,3.104332983E0,-4.270595228E0,-1.040901450E1,1.167143735E1
4.835105542E0,2.967643500E0,-4.194998916E0,-9.863590901E0,1.112184109E1
4.845040542E0,3.064703186E0,-3.764495324E0,-9.310527915E0,1.049998861E1
4.854976542E0,3.222854290E0,-3.272672567E0,-8.990366546E0,1.009573505E1
4.864911542E0,3.336403710E0,-3.030187950E0,-8.772701020E0,9.862753769E0
4.874847542E0,3.284036339E0,-2.946459330E0,-8.565803726E0,9.635326187E0
4.884782542E0,2.958639665E0,-2.958067222E0,-8.249921933E0,9.250130932E0
4.894718542E0,2.591576024E0,-3.027713993E0,-7.876529267E0,8.827402313E0
4.904654542E0,2.225802572E0,-3.103075247E0,-7.618434337E0,8.521960739E0
4.914589542E0,2.021806082E0,-3.230710609E0,-7.297877111E0,8.233116130E0
4.924525542E0,1.993780962E0,-3.490553271E0,-6.668599763E0,7.786484923E0
4.934460542E0,1.913260417E0,-3.773581898E0,-6.077843871E0,7.405448797E0
4.944396542E0,1.578079305E0,-4.037608243E0,-5.881060506E0,7.306126695E0
4.954331542E0,1.110406425E0,-4.305898377E0,-5.776517553E0,7.289850362E0
4.964267542E0,8.926957293E-1,-4.390977119E0,-5.325619458E0,6.959871287E0
4.974202542E0,9.031546439E-1,-4.392517276E0,-4.306186060E0,6.217164524E0
4.984138542E0,1.102716021E0,-4.449957983E0,-3.204510405E0,5.593477953E0
4.994073542E0,1.467215073E0,-4.454493084E0,-2.222924865E0,5.190050449E0
5.004009542E0,1.433761690E0,-4.580828610E0,-1.219033659E0,4.952343526E0
5.013945542E0,1.249498529E0,-5.025647355E0,-2.521968430E-1,5.184783617E0
5.023880542E0,9.660209830E-1,-5.339586117E0,8.754287553E-1,5.496430837E0
5.033816542E0,2.392399979E-1,-5.546806177E0,1.310567434E0,5.704549198E0
5.043751542E0,-1.430248683E-1,-5.493079036E0,9.454620266E-1,5.575685775E0
5.053687542E0,-2.673716833E-1,-5.275954962E0,3.771910179E-1,5.296174227E0
5.063622542E0,-6.249792065E-1,-5.106620182E0,-2.339044136E-1,5.150036890E0
5.073558542E0,-1.041809376E-1,-4.521390494E0,2.949142617E-1,4.532195945E0
5.083493542E0,1.992062027E0,-3.369871418E0,2.691284500E0,4.750511209E0
5.093429542E0,3.913603417E0,-2.490366569E0,5.099322857E0,6.893570261E0
5.103364542E0,4.618816508E0,-2.301338658E0,5.974740502E0,7.894754564E0
5.113300542E0,3.577883776E0,-2.702764046E0,5.642975333E0,7.207590195E0
5.123236542E0,1.402992472E0,-3.317007326E0,5.779988460E0,6.810227021E0
5.133171542E0,-3.982170206E-1,-3.412478324E0,6.929386750E0,7.734338100E0
5.143107542E0,-1.538544087E0,-3.081701335E0,9.100129309E0,9.730177514E0
5.153042542E0,-2.127021465E0,-2.141717272E0,1.159880711E1,1.198513661E1
5.162978542E0,-2.650159278E0,-1.396245662E0,1.369272193E1,1.401654308E1
5.172913542E0,-2.910964684E0,-1.101441474E0,1.522106482E1,1.553601310E1
5.182849542E0,-2.776131692E0,-1.013711386E0,1.600793749E1,1.627846985E1
5.192784542E0,-2.391000740E0,-9.926935688E-1,1.576529676E1,1.597644851E1
5.202720542E0,-1.740443619E0,-1.009963393E0,1.484208105E1,1.497786833E1
5.212656542E0,-1.003081659E0,-1.552614096E0,1.349253315E1,1.361856212E1
5.222591542E0,-4.865770738E-1,-2.291381581E0,1.197867732E1,1.220556829E1
5.232527542E0,-6.564230472E-2,-2.715089684E0,1.051248449E1,1.085764021E1
5.242462542E0,3.965366770E-1,-2.789491995E0,9.430715094E0,9.842606063E0
5.252398542E0,8.251598038E-1,-2.575956649E0,9.206176166E0,9.595317658E0
5.262333542E0,1.296072625E0,-2.343982987E0,9.671892859E0,1.003591411E1
5.272269542E0,1.631659534E0,-2.638596117E0,1.010466108E1,1.057017870E1
5.282204542E0,1.888238135E0,-3.031715242E0,9.978610311E0,1.059855671E1
5.292140542E0,1.814790089E0,-3.427066835E0,9.361302797E0,1.013273113E1
5.302075542E0,1.710930091E0,-3.969712713E0,8.515950950E0,9.550252425E0
5.312011542E0,1.765325861E0,-4.528473811E0,7.843759131E0,9.227567814E0
5.321947542E0,2.071407135E0,-5.252399454E0,7.607699434E0,9.473938897E0
5.331882542E0,2.624823292E0,-6.315762983E0,7.557368356E0,1.019276095E1
5.341818542E0,3.110897944E0,-7.585443762E0,7.128763940E0,1.086443364E1
5.351753542E0,3.254994973E0,-8.766714056E0,6.282815092E0,1.126605668E1
5.361689542E0,3.187874492E0,-9.724142409E0,5.557468575E0,1.164503956E1
5.371624542E0,2.917434628E0,-1.067374836E1,4.991694328E0,1.213908321E1
5.381560542E0,2.943784229E0,-1.162777305E1,4.543574830E0,1.282634179E1
5.391495542E0,2.998338166E0,-1.263515007E1,4.093790630E0,1.361602625E1
5.401431542E0,2.581955600E0,-1.357916433E1,3.361402311E0,1.422530225E1
5.411367542E0,2.040110352E0,-1.417887347E1,2.643050818E0,1.456668188E1
5.421302542E0,1.482009259E0,-1.486846134E1,1.782348275E0,1.504806498E1
5.431238542E0,6.750451134E-1,-1.511926947E1,6.470476216E-1,1.514815718E1
5.441173542E0,1.924791930E-1,-1.464348387E1,-4.910604264E-1,1.465297951E1
5.451109542E0,3.552861055E-1,-1.384212765E1,-1.390396546E0,1.391631879E1
5.461044542E0,5.720617586E-1,-1.320204231E1,-1.841985782E0,1.334219200E1
5.470980542E0,4.700187458E-1,-1.280518359E1,-1.726823700E0,1.292963900E1
5.480915542E0,2.265481229E-1,-1.266797634E1,-1.454174466E0,1.275317890E1
5.490851542E0,-2.071312556E-1,-1.214590886E1,-1.774873049E0,1.227665181E1
5.500787542E0,-6.742495997E-1,-1.105712222E1,-2.608098209E0,1.138054219E1
5.510722542E0,-9.562041657E-1,-1.016055695E1,-3.219868702E0,1.070134564E1
5.520658542E0,-7.684600114E-1,-9.324513286E0,-3.130946293E0,9.866098697E0
5.530593542E0,-3.662676881E-1,-8.460456780E0,-2.573428313E0,8.850763483E0
5.540529542E0,-3.207818321E-1,-7.982545719E0,-2.610997551E0,8.404834641E0
5.550464542E0,-4.811444257E-1,-7.338217637E0,-3.663290839E0,8.215877179E0
5.560400542E0,4.184311375E-2,-6.719029074E0,-4.831685271E0,8.276006592E0
5.570335542E0,9.540013003E-1,-6.171163094E0,-5.620226741E0,8.401209498E0
5.580271542E0,1.486121460E0,-5.599317682E0,-6.325046607E0,8.577128312E0
5.590206542E0,1.644471807E0,-4.944613717E0,-7.172443811E0,8.865519869E0
5.600142542E0,1.666463185E0,-4.437563056E0,-7.943229041E0,9.250078541E0
5.610077542E0,1.855632598E0,-3.977974829E0,-8.534635727E0,9.597273732E0
5.620013542E0,2.186799890E0,-3.501320919E0,-9.924493160E0,1.074880954E1
5.629949542E0,2.607366723E0,-3.096663775E0,-1.163026396E1,1.231465499E1
5.639884542E0,3.065570913E0,-2.766570325E0,-1.228365757E1,1.295916199E1
5.649820542E0,3.399520017E0,-2.462325661E0,-1.179188334E1,1.251672069E1
5.659755542E0,3.667385936E0,-2.306789140E0,-1.080959321E1,1.164552709E1
5.669691542E0,3.750527203E0,-2.364401756E0,-9.653110433E0,1.062258871E1
5.679626542E0,3.541348911E0,-2.535127589E0,-8.584459852E0,9.626057082E0
5.689562542E0,3.166942922E0,-2.705875057E0,-7.738226244E0,8.788141596E0
5.699497542E0,2.680896336E0,-2.870583521E0,-7.171174965E0,8.176380941E0
5.709433542E0,2.111711408E0,-2.900831167E0,-6.966255784E0,7.835998097E0
5.719369542E0,1.511806378E0,-2.738252259E0,-6.863275791E0,7.542422592E0
5.729304542E0,1.022971840E0,-2.577663744E0,-6.645975716E0,7.201375909E0
5.739240542E0,9.469817179E-1,-2.435391632E0,-6.533090540E0,7.036275917E0
5.749175542E0,1.117549676E0,-2.336348569E0,-6.552727829E0,7.045969339E0
5.759111542E0,1.301900399E0,-2.648156607E0,-6.404937115E0,7.052013720E0
5.769046542E0,1.528447407E0,-3.290112473E0,-5.913932383E0,6.937981536E0
5.778981792E0,1.612624801E0,-4.014310012E0,-5.398218488E0,6.917803586E0
5.788916792E0,1.418330157E0,-4.745545844E0,-4.835839718E0,6.922225912E0
5.798852792E0,8.969970873E-1,-5.610979954E0,-4.343322312E0,7.152073023E0
5.808787792E0,-3.813992590E-3,-6.301748376E0,-3.963838601E0,7.444733951E0
5.818723792E0,-5.579094502E-1,-6.656086721E0,-3.520697422E0,7.550500893E0
5.828659792E0,-5.559839621E-1,-6.739237636E0,-2.968472342E0,7.385003056E0
5.838594792E0,-2.476012239E-1,-6.533770571E0,-2.222589235E0,6.905893653E0
5.848530792E0,-1.554229389E-1,-5.900780241E0,-9.602329704E-1,5.980418974E0
5.858465792E0,2.295023373E-1,-5.400310621E0,-6.700850666E-2,5.405600454E0
5.868401792E0,9.549511074E-1,-5.019903635E0,1.547085553E-1,5.112269443E0
5.878336792E0,1.571442715E0,-5.246711867E0,-2.400129998E-1,5.482246243E0
5.888272792E0,1.509700357E0,-5.989072613E0,-6.632449937E-1,6.211930444E0
5.898207792E0,1.006565649E0,-6.741036240E0,-5.501703680E-1,6.837940584E0
5.908143792E0,3.433726229E-1,-7.159822011E0,-5.673670292E-2,7.168275597E0
5.918078792E0,-1.438638707E-1,-7.311872422E0,4.296697783E-1,7.325898665E0
5.928014792E0,-3.505914491E-1,-7.120746823E0,1.325750315E0,7.251590417E0
5.937950792E0,2.139108829E-1,-6.425721627E0,2.974021935E0,7.083816963E0
5.947885792E0,1.001205361E0,-5.516635129E0,5.457853070E0,7.824566152E0
5.957821792E0,1.636555993E0,-4.529030465E0,8.441098403E0,9.718156962E0
5.967756792E0,1.804868972E0,-3.316533994E0,1.145408969E1,1.206039470E1
5.977692792E0,1.106118150E0,-2.374203005E0,1.404223340E1,1.428442005E1
5.987627792E0,-4.875037844E-1,-1.851776067E0,1.594825146E1,1.606279736E1
5.997563792E0,-2.409360705E0,-1.475747476E0,1.711399096E1,1.734564891E1
6.007498792E0,-3.753944024E0,-1.278936629E0,1.764758330E1,1.808770220E1
6.017434792E0,-4.225732174E0,-1.384316319E0,1.734973432E1,1.791051158E1
6.027370792E0,-3.602651704E0,-1.570616211E0,1.617304298E1,1.664371515E1
6.037305792E0,-2.395409248E0,-1.606154711E0,1.432835754E1,1.461572948E1
6.047241792E0,-1.314446477E0,-1.530825470E0,1.238430569E1,1.254759832E1
6.057176792E0,-4.312208985E-1,-1.564968239E0,1.074142871E1,1.086339577E1
6.067112792E0,2.842625351E-1,-1.616240865E0,9.741226804E0,9.878488719E0
6.077047792E0,5.957720719E-1,-1.794764253E0,9.440762365E0,9.628297727E0
6.086983792E0,5.895774586E-1,-2.116467533E0,9.335532364E0,9.590578758E0
6.096918792E0,3.410726937E-1,-2.252884682E0,9.152981122E0,9.432331811E0
6.106854792E0,-4.093065575E-2,-2.375272022E0,8.831842682E0,9.145766106E0
6.116789792E0,-1.801887477E-1,-2.637214712E0,8.456960730E0,8.860448872E0
6.126725792E0,-2.155247144E-2,-3.065517704E0,8.253878160E0,8.804792330E0
6.136661792E0,2.492081118E-1,-3.846957730E0,8.583875715E0,9.409788029E0
6.146596792E0,4.035777845E-1,-5.081860732E0,9.456957983E0,1.074347420E1
6.156532792E0,4.879784686E-1,-6.208407519E0,9.872466974E0,1.167253405E1
6.166467792E0,6.813260463E-1,-7.207383263E0,9.432996678E0,1.189083702E1
6.176403792E0,7.245582392E-1,-8.573081170E0,8.577712750E0,1.214906834E1
6.186338792E0,6.309044825E-1,-9.954175966E0,7.729274157E0,1.261845231E1
6.196274792E0,7.273155668E-1,-1.133634431E1,7.157149249E0,1.342633515E1
6.206209792E0,1.052839783E0,-1.300051217E1,6.636523692E0,1.463438537E1
6.216145792E0,1.554593963E0,-1.447878184E1,5.634298650E0,1.561400677E1
6.226081792E0,2.080600420E0,-1.526407928E1,4.108622092E0,1.594370690E1
6.236016792E0,2.373804663E0,-1.533948965E1,2.143581072E0,1.566939153E1
6.245952792E0,2.189528931E0,-1.499994651E1,1.156491548E-1,1.515934718E1
6.255887792E0,1.583573787E0,-1.448789181E1,-1.200007989E0,1.462349938E1
6.265823792E0,9.339886200E-1,-1.404307540E1,-1.576307891E0,1.416209900E1
6.275758792E0,5.447066566E-1,-1.403145113E1,-1.746831849E0,1.415025610E1
6.285694792E0,5.675897350E-1,-1.381442588E1,-2.220431174E0,1.400324373E1
6.295629792E0,7.384365325E-1,-1.329978436E1,-2.510003273E0,1.355469177E1
6.305565792E0,1.029559460E0,-1.295557047E1,-2.359398293E0,1.320884398E1
6.315500792E0,1.173312233E0,-1.250610085E1,-2.091553717E0,1.273396313E1
6.325436792E0,1.299755056E0,-1.173943615E1,-2.075828361E0,1.199219696E1
6.335372792E0,1.550921327E0,-1.064550631E1,-2.119405174E0,1.096467235E1
6.345307792E0,1.566237962E0,-9.648675320E0,-2.119795768E0,1.000217831E1
6.355243792E0,1.363012866E0,-8.893634888E0,-2.264777188E0,9.278133503E0
6.365178792E0,1.379917166E0,-8.112519382E0,-2.290031897E0,8.541743862E0
6.375114792E0,1.200666824E0,-7.430290233E0,-2.980862008E0,8.095452556E0
6.385049792E0,7.450494410E-1,-6.940873606E0,-4.442288191E0,8.274342841E0
6.394985792E0,5.356626950E-1,-6.749165039E0,-6.086464421E0,9.104021770E0
6.404920792E0,3.584612167E-1,-6.417361863E0,-7.102591803E0,9.579031164E0
6.414856792E0,1.324796341E-1,-5.842781709E0,-7.461186921E0,9.477603031E0
6.424791792E0,1.163946748E-1,-5.047995998E0,-7.568242423E0,9.098027516E0
6.434727792E0,4.274922752E-1,-4.254802483E0,-8.154655588E0,9.207849997E0
6.444663792E0,7.463318816E-1,-3.801021711E0,-8.904170401E0,9.710253748E0
6.454598792E0,9.094800156E-1,-3.496523863E0,-9.357169985E0,1.003042687E1
6.464534792E0,1.002490798E0,-3.296843203E0,-9.501147146E0,1.010672845E1
6.474469792E0,1.279353828E0,-3.168610255E0,-9.371780423E0,9.975324830E0
6.484405792E0,1.726800896E0,-2.930192961E0,-9.118339292E0,9.732008198E0
6.494340792E0,2.010932892E0,-2.768064288E0,-8.691749243E0,9.340906589E0
6.504276792E0,1.973612161E0,-2.854532329E0,-8.095910366E0,8.808363323E0
6.514211792E0,1.730618251E0,-3.098292224E0,-7.530477596E0,8.324815137E0
6.524147792E0,1.515027901E0,-3.202037618E0,-7.198562738E0,8.022945839E0
6.534083792E0,1.295909634E0,-3.173373397E0,-6.941999195E0,7.742159474E0
6.544018792E0,1.102940408E0,-3.054117095E0,-6.801788810E0,7.537137374E0
6.553954792E0,1.254000593E0,-2.749806942E0,-6.781328233E0,7.424309282E0
6.563889792E0,1.597793485E0,-2.517151494E0,-6.688424163E0,7.322841897E0
6.573825792E0,1.726245410E0,-2.812069264E0,-6.627916006E0,7.403845443E0
6.583760792E0,1.679824365E0,-3.195885762E0,-6.759797616E0,7.663573547E0
6.593696792E0,1.550210598E0,-3.510769435E0,-6.964571786E0,7.951975546E0
6.603631792E0,1.395095369E0,-3.881884611E0,-6.611470712E0,7.792744330E0
6.613567792E0,1.456341152E0,-4.367296481E0,-5.510996075E0,7.180897286E0
6.623502792E0,1.922699870E0,-5.023813083E0,-4.661273434E0,7.117790578E0
6.633438792E0,2.101539153E0,-5.105461264E0,-4.213810286E0,6.945386861E0
6.643374792E0,1.251022168E0,-4.754080440E0,-3.791960573E0,6.208486312E0
6.653309792E0,7.251551668E-1,-4.661144210E0,-3.612553087E0,5.941603754E0
6.663245792E0,1.286112478E0,-4.076609756E0,-4.115123319E0,5.933554781E0
6.673180792E0,2.236483973E0,-4.176972535E0,-4.135515776E0,6.288994423E0
6.683116792E0,2.999405283E0,-5.314792753E0,-3.247669289E0,6.913089748E0
6.693051792E0,3.433100577E0,-6.371995071E0,-2.062642744E0,7.526154120E0
6.702987792E0,3.299130633E0,-6.855459234E0,-1.130483133E0,7.691526269E0
6.712922792E0,2.543499925E0,-6.157837290E0,3.559173855E0,7.553546881E0
6.722858792E0,1.460064805E0,-5.475158490E0,7.339923270E0,9.272735483E0
6.732793792E0,1.236298148E0,-6.251835374E0,7.597435232E0,9.916395553E0
6.742729792E0,9.608907822E-1,-6.888325263E0,4.870253506E0,8.490683438E0
6.752665792E0,6.228980362E-2,-5.194573415E0,2.082490532E0,5.596806214E0
6.762600792E0,6.827477968E-1,-3.366538505E0,1.622521652E0,3.798987045E0
6.772536792E0,2.365178120E0,-3.666102765E0,3.485753877E0,5.584340347E0
6.782471542E0,3.085703461E0,-4.596702631E0,6.728647159E0,8.713548848E0
6.792407542E0,2.026132144E0,-4.452166769E0,9.579578773E0,1.075617636E1
6.802342542E0,3.132107842E-1,-4.027184119E0,1.132666015E1,1.202537081E1
6.812278542E0,-1.250735216E0,-4.090505956E0,1.229422114E1,1.301708305E1
6.822213542E0,-2.591243902E0,-4.260868385E0,1.270251467E1,1.364637034E1
6.832149542E0,-3.655717525E0,-3.999584384E0,1.284557499E1,1.394165495E1
6.842084542E0,-3.985114864E0,-3.309615276E0,1.346835491E1,1.443022099E1
6.852020542E0,-3.592812302E0,-3.218085593E0,1.518378765E1,1.593147145E1
6.861956542E0,-2.968337857E0,-3.630366045E0,1.698207076E1,1.761764214E1
6.871891542E0,-2.414012749E0,-4.138285602E0,1.736173047E1,1.801062326E1
6.881827542E0,-1.715152658E0,-4.652021384E0,1.621848754E1,1.695943365E1
6.891762542E0,-1.069109222E0,-5.257124004E0,1.449235908E1,1.545344036E1
6.901698542E0,-4.741451624E-1,-6.028183469E0,1.328338526E1,1.459493520E1
6.911633542E0,2.840463343E-1,-6.826578666E0,1.323705777E1,1.489639410E1
6.921569542E0,9.145781299E-1,-7.846210284E0,1.377679905E1,1.588079535E1
6.931504542E0,1.468029590E0,-8.974470305E0,1.346955710E1,1.625192901E1
6.941440542E0,2.014170495E0,-9.955247176E0,1.215866047E1,1.584288021E1
6.951376542E0,2.616267354E0,-1.103675520E1,1.052499519E1,1.547353689E1
6.961311542E0,3.420454803E0,-1.218549568E1,8.823977008E0,1.542881675E1
6.971247542E0,4.241792136E0,-1.313310246E1,7.269358487E0,1.559854973E1
6.981182542E0,4.539715667E0,-1.413151921E1,6.180274225E0,1.607807958E1
6.991118542E0,4.209681274E0,-1.517822110E1,5.186463912E0,1.658310044E1
7.001053542E0,3.584870029E0,-1.577485695E1,3.791969637E0,1.661554810E1
7.010989542E0,2.934311739E0,-1.602439858E1,2.173757967E0,1.643522920E1
7.020924542E0,2.272432947E0,-1.616639353E1,6.008581263E-1,1.633637848E1
7.030860542E0,1.969117991E0,-1.590502767E1,-9.972546163E-1,1.605745458E1
7.040795542E0,2.261549525E0,-1.545321332E1,-2.015421215E0,1.574732773E1
7.050731542E0,2.402496366E0,-1.501617604E1,-2.416067169E0,1.539788662E1
7.060667542E0,2.446986953E0,-1.453474204E1,-2.621324903E0,1.497056497E1
7.070602542E0,2.484749148E0,-1.375609639E1,-2.645131257E0,1.422676652E1
7.080538542E0,2.048241636E0,-1.274334929E1,-2.750219171E0,1.319666436E1
7.090473542E0,1.239987302E0,-1.201055751E1,-3.219240126E0,1.249618211E1
7.100409542E0,6.397872801E-1,-1.185591035E1,-3.830448993E0,1.247574757E1
7.110344542E0,4.014187367E-1,-1.197560753E1,-4.577931315E0,1.282707168E1
7.120280542E0,6.137029973E-1,-1.135397600E1,-5.372604175E0,1.257594045E1
7.130215542E0,8.103276835E-1,-1.025059705E1,-6.061634220E0,1.193628000E1
7.140151542E0,1.145155551E0,-9.383110573E0,-6.080112591E0,1.123930222E1
7.150087542E0,1.753931392E0,-8.379446531E0,-6.065388132E0,1.049191749E1
7.160022542E0,2.170337492E0,-7.197821896E0,-6.648650233E0,1.003611253E1
7.169958542E0,2.353200537E0,-6.328084821E0,-7.478226292E0,1.007502252E1
7.179893542E0,2.485730019E0,-5.792083426E0,-8.092823036E0,1.025772240E1
7.189829542E0,2.445830666E0,-5.698710408E0,-8.432769629E0,1.046752079E1
7.199764542E0,2.380075217E0,-5.634767597E0,-8.331356106E0,1.033570793E1
7.209700542E0,2.653798585E0,-5.173709965E0,-8.069050012E0,9.945827759E0
7.219635542E0,3.054046636E0,-4.715635582E0,-7.932074307E0,9.720196635E0
7.229571542E0,3.531910920E0,-4.386980547E0,-7.908315316E0,9.708833308E0
7.239506542E0,3.898477839E0,-4.065460870E0,-7.783405341E0,9.607679233E0
7.249442542E0,4.097567638E0,-3.572987317E0,-7.842693769E0,9.542753506E0
7.259377542E0,4.241253023E0,-2.810106938E0,-8.334442266E0,9.764622681E0
7.269313542E0,4.323932360E0,-2.236478126E0,-9.063171397E0,1.028782296E1
7.279249542E0,4.206924312E0,-1.988356792E0,-9.484957960E0,1.056485695E1
7.289184542E0,4.029639072E0,-2.139413177E0,-9.782010548E0,1.079364675E1
7.299120542E0,3.608840690E0,-2.634986338E0,-9.914238313E0,1.087469565E1
7.309055542E0,2.864776066E0,-2.833015160E0,-9.583637910E0,1.039610660E1
7.318991542E0,2.234469023E0,-2.622443476E0,-8.931140099E0,9.572634175E0
7.328926542E0,1.840024333E0,-2.500672871E0,-8.408446966E0,8.963316057E0
7.338862542E0,1.742507687E0,-2.548507773E0,-8.057431594E0,8.628640032E0
7.348797542E0,1.804281181E0,-2.610665429E0,-7.435976651E0,8.084847142E0
7.358733542E0,1.906699256E0,-2.575276326E0,-6.545622293E0,7.287847515E0
7.368668542E0,1.862107805E0,-2.402067765E0,-5.665519858E0,6.429268254E0
7.378604542E0,1.622226660E0,-2.178884221E0,-5.013923687E0,5.702507039E0
7.388540542E0,1.516327445E0,-2.173315333E0,-4.934572878E0,5.601121133E0
7.398475542E0,1.610612336E0,-2.401246231E0,-4.940872668E0,5.724707703E0
7.408411542E0,1.763200106E0,-3.013919241E0,-4.805191830E0,5.939903394E0
7.418346542E0,1.957670312E0,-3.884581347E0,-4.447392225E0,6.221072487E0
7.428282542E0,1.876659917E0,-4.737038730E0,-3.815155309E0,6.365280701E0
7.438217542E0,1.538984821E0,-5.229403524E0,-3.249601209E0,6.346262169E0
7.448153542E0,1.012492899E0,-4.588550443E0,-7.016933602E-1,4.751032584E0
7.458088542E0,1.217410764E-1,-3.647510666E0,2.502326463E0,4.425018946E0
7.468024542E0,6.730449271E-1,-4.117751935E0,3.735969098E0,5.600565647E0
7.477959542E0,2.256217303E0,-4.794480608E0,4.619093374E0,7.029479669E0
7.487895542E0,2.868451041E0,-4.598793011E0,4.802304182E0,7.241480096E0
7.497831542E0,2.256625877E0,-4.091308486E0,4.676596062E0,6.610727359E0
7.507766542E0,1.335866582E0,-3.407285704E0,4.315129961E0,5.658134143E0
7.517702542E0,5.779392336E-1,-2.784643191E0,3.390733114E0,4.425530760E0
7.527637542E0,3.584683795E-1,-2.383406961E0,2.251632940E0,3.298329761E0
7.537573542E0,4.853546403E-1,-2.437237890E0,1.415051331E0,2.859732143E0
7.547508542E0,-6.001801416E-3,-2.605309380E0,1.809885737E0,3.172279838E0
7.557444542E0,-1.054268623E0,-2.672405887E0,3.652559736E0,4.646980545E0
7.567379542E0,-1.835870764E0,-2.809739441E0,6.070622560E0,6.936678993E0
7.577315542E0,-2.112974114E0,-2.997795544E0,8.212073491E0,8.993863950E0
7.587251542E0,-2.127487342E0,-3.073352388E0,9.323140944E0,1.004453356E1
7.597186542E0,-2.136976934E0,-3.025922406E0,1.027194992E1,1.091951610E1
7.607122542E0,-2.426298042E0,-3.273413410E0,1.226668310E1,1.292569812E1
7.617057542E0,-3.226499444E0,-3.719005156E0,1.502895806E1,1.581489419E1
7.626993542E0,-3.428768375E0,-3.734670432E0,1.744726588E1,1.816896537E1
7.636928542E0,-2.972099663E0,-4.401062397E0,1.869053946E1,1.943036263E1
7.646864542E0,-2.421358022E0,-5.387054983E0,1.870977096E1,1.961985895E1
7.656799542E0,-1.620037024E0,-6.208308701E0,1.779556814E1,1.891692000E1
7.666735542E0,-2.171739216E-1,-6.928234849E0,1.626039571E1,1.767620070E1
7.676670542E0,1.806788760E0,-7.289824326E0,1.439654894E1,1.623781530E1
7.686606542E0,3.763593391E0,-7.363685185E0,1.269687679E1,1.515253031E1
7.696542542E0,5.084446371E0,-7.601462209E0,1.163817173E1,1.480138047E1
7.706477542E0,5.604981295E0,-8.062275428E0,1.126468551E1,1.494353506E1
7.716413542E0,5.517361938E0,-9.014307970E0,1.107730213E1,1.531031200E1
7.726348542E0,5.083693249E0,-1.015388177E1,1.054240235E1,1.549475716E1
7.736284542E0,4.329924879E0,-1.151832954E1,9.147736754E0,1.533301186E1
7.746219542E0,3.363413753E0,-1.293634366E1,6.819180769E0,1.500542454E1
7.756155542E0,2.444396929E0,-1.378717551E1,4.288987645E0,1.464434020E1
7.766090542E0,1.653373608E0,-1.392669476E1,2.216675946E0,1.419859583E1
7.776026833E0,1.154705662E0,-1.396192072E1,7.082948667E-1,1.402748221E1
7.785961833E0,1.243890173E0,-1.376021400E1,-5.913078690E-1,1.382896949E1
7.795897833E0,1.759506127E0,-1.329636491E1,-1.702040277E0,1.351984182E1
7.805833833E0,2.279600172E0,-1.281077236E1,-2.437265957E0,1.323830544E1
7.815768833E0,2.433652377E0,-1.238378996E1,-2.658141897E0,1.289754380E1
7.825704833E0,2.339501827E0,-1.197293653E1,-2.525070378E0,1.245794759E1
7.835639833E0,2.342151200E0,-1.166562675E1,-2.367882019E0,1.213175111E1
7.845575833E0,2.335959730E0,-1.124427054E1,-2.354008330E0,1.172312600E1
7.855510833E0,2.093000318E0,-1.078880285E1,-2.451833417E0,1.126012453E1
7.865446833E0,1.645549449E0,-1.051324346E1,-2.636068658E0,1.096289099E1
7.875381833E0,1.224810050E0,-1.016625448E1,-3.088287638E0,1.069534526E1
7.885317833E0,9.299928521E-1,-9.916498847E0,-3.666235789E0,1.061334636E1
7.895252833E0,5.975039441E-1,-9.481651359E0,-4.281076362E0,1.042047687E1
7.905188833E0,2.963414574E-1,-8.747392516E0,-4.928780626E0,1.004477837E1
7.915124833E0,1.854282184E-1,-8.119890382E0,-5.285036273E0,9.690129610E0
7.925059833E0,-2.657285426E-1,-7.467441688E0,-5.452743773E0,9.250173602E0
7.934995833E0,-7.065500575E-1,-7.118364083E0,-5.604550940E0,9.087426007E0
7.944930833E0,-8.351912870E-1,-6.764221035E0,-5.081532703E0,8.501423722E0
7.954866833E0,-5.190690279E-1,-6.296302865E0,-4.115751602E0,7.540044673E0
7.964801833E0,1.281974258E-1,-5.473856315E0,-3.518573421E0,6.508448084E0
7.974737833E0,7.469002309E-1,-4.660610359E0,-3.559447213E0,5.911752137E0
7.984672833E0,1.550852914E0,-4.004168601E0,-3.958633409E0,5.840315866E0
7.994608833E0,2.576822622E0,-3.378004895E0,-4.773771231E0,6.390604327E0
8.004543833E0,3.474173758E0,-2.639013315E0,-6.121129054E0,7.516814184E0
8.014479833E0,4.124697257E0,-2.030338047E0,-7.824379120E0,9.075037667E0
8.024415833E0,4.485182488E0,-1.931175116E0,-9.509620931E0,1.069014450E1
8.034350833E0,4.485923915E0,-2.121987305E0,-1.048547503E1,1.160049698E1
8.044286833E0,4.378398004E0,-2.170496975E0,-1.059137980E1,1.166442250E1
8.054221833E0,4.291498147E0,-2.370855913E0,-9.938373281E0,1.108193023E1
8.064157833E0,3.914605629E0,-2.655685481E0,-9.033186291E0,1.019682584E1
8.074092833E0,3.153558645E0,-2.871043696E0,-8.088722384E0,9.144137676E0
8.084028833E0,2.518790469E0,-2.821647003E0,-7.266576966E0,8.192016726E0
8.093963833E0,2.101545146E0,-2.631099109E0,-6.798693295E0,7.586923292E0
8.103899833E0,1.437271627E0,-2.576742808E0,-6.767014250E0,7.382264902E0
8.113834833E0,8.712462419E-1,-2.351181786E0,-6.592200043E0,7.052958756E0
8.123770833E0,7.757018611E-1,-1.909140469E0,-6.282025133E0,6.611381889E0
8.133706833E0,1.074134392E0,-1.360902606E0,-6.603797411E0,6.827588215E0
8.143641833E0,1.328047101E0,-1.162986635E0,-7.059624124E0,7.276986999E0
8.153577833E0,1.406113862E0,-1.245359870E0,-6.877137201E0,7.129031735E0
8.163512833E0,1.346141017E0,-1.352211304E0,-6.654296889E0,6.922444520E0
8.173448833E0,1.523682950E0,-1.661928962E0,-6.482962945E0,6.863849223E0
8.183383833E0,2.077884973E0,-2.338536597E0,-6.461796609E0,7.179218258E0
8.193319833E0,1.823707970E0,-2.774556452E0,-6.276490159E0,7.100591735E0
8.203254833E0,7.285054752E-1,-3.201480963E0,-5.600238619E0,6.491754244E0
8.213190833E0,3.418159479E-1,-3.616603453E0,-4.926815962E0,6.121288606E0
8.223125833E0,8.221401554E-1,-3.302017404E0,-3.501978731E0,4.882938501E0
8.233061833E0,1.413590550E0,-3.539722508E0,-1.766278957E0,4.200906453E0
8.242997833E0,2.000452343E0,-4.224661841E0,-3.088972932E-1,4.684548514E0
8.252932833E0,2.464229222E0,-4.553019252E0,7.969164366E-1,5.238080353E0
8.262868833E0,2.527587605E0,-4.599363114E0,1.409823920E0,5.434192087E0
8.272803833E0,2.403679989E0,-4.204701201E0,1.474514006E0,5.062744436E0
8.282739833E0,2.707916320E0,-4.150897461E0,1.286103854E0,5.120236679E0
8.292674833E0,2.554991750E0,-4.880868541E0,1.673399445E0,5.757701474E0
8.302610833E0,1.888346308E0,-5.334446415E0,2.323601055E0,6.117294516E0
8.312545833E0,1.084396694E0,-5.349125265E0,3.117198611E0,6.285378626E0
8.322481833E0,5.522739038E-2,-5.365236683E0,4.264155105E0,6.853600038E0
8.332416833E0,-9.199196345E-1,-5.098574413E0,5.485946018E0,7.545682003E0
8.342352833E0,-1.593061187E0,-4.456293149E0,6.063895338E0,7.692023092E0
8.352288833E0,-1.906620611E0,-3.707769731E0,5.847808560E0,7.181895536E0
8.362223833E0,-1.744144761E0,-3.314982435E0,5.670881170E0,6.796325679E0
8.372159833E0,-1.310478849E0,-2.906563777E0,6.799519506E0,7.509922324E0
8.382094833E0,-9.249379342E-1,-2.804419352E0,9.637196066E0,1.007947549E1
8.392030833E0,-1.268482100E0,-3.235315291E0,1.381218172E1,1.424263584E1
8.401965833E0,-2.186687915E0,-3.775388395E0,1.799038334E1,1.851186253E1
8.411901833E0,-3.271227136E0,-3.991569898E0,2.138429675E1,2.199822049E1
8.421836833E0,-4.066294098E0,-4.345657690E0,2.337042517E1,2.411630695E1
8.431772833E0,-4.385550903E0,-5.360463016E0,2.290617496E1,2.393032536E1
8.441707833E0,-4.191052045E0,-6.221831557E0,2.040611137E1,2.174133129E1
8.451643833E0,-3.336298752E0,-7.121043277E0,1.717525575E1,1.888993268E1
8.461579833E0,-1.819958736E0,-8.057930946E0,1.445035268E1,1.664497502E1
8.471514833E0,-2.221471247E-1,-8.638960580E0,1.264277952E1,1.531407402E1
8.481450833E0,1.353504855E0,-8.951660317E0,1.165534618E1,1.475843123E1
8.491385833E0,2.882910913E0,-9.436582775E0,1.097107226E1,1.475549715E1
8.501321833E0,3.987301723E0,-1.004018266E1,1.018085848E1,1.484431616E1
8.511256833E0,4.387104801E0,-1.113278519E1,9.155750948E0,1.506696287E1
8.521192833E0,4.252131475E0,-1.213162996E1,7.846606725E0,1.506075379E1
8.531127833E0,4.162011556E0,-1.273446386E1,6.425208827E0,1.485840565E1
8.541063833E0,3.577532651E0,-1.352905720E1,4.596027862E0,1.472948066E1
8.550999833E0,2.757569121E0,-1.441028522E1,2.525001381E0,1.488744906E1
8.560934833E0,2.150959527E0,-1.480084414E1,9.061295611E-1,1.498374736E1
8.570870833E0,1.993380866E0,-1.456659182E1,-3.768817002E-1,1.470718207E1
8.580805833E0,2.476825587E0,-1.398360454E1,-1.473761469E0,1.427752898E1
8.590741833E0,2.904830078E0,-1.376167230E1,-2.582279536E0,1.429999405E1
8.600676833E0,3.383381117E0,-1.322147143E1,-3.249390709E0,1.402900975E1
8.610612833E0,3.083584723E0,-1.259784717E1,-3.449769819E0,1.342069894E1
8.620547833E0,2.375326255E0,-1.232822621E1,-3.724786883E0,1.309585330E1
8.630483833E0,2.015539621E0,-1.209016735E1,-4.039015667E0,1.290535525E1
8.640418833E0,1.983279070E0,-1.188762097E1,-3.854583961E0,1.265332943E1
8.650354833E0,1.905067006E0,-1.095483805E1,-3.795620638E0,1.174923372E1
8.660290833E0,1.874316499E0,-1.013813288E1,-4.589860804E0,1.128546068E1
8.670225833E0,1.568315624E0,-9.650668636E0,-5.355105212E0,1.114774286E1
8.680161833E0,8.282187746E-1,-8.823202837E0,-5.680088196E0,1.052607508E1
8.690096833E0,5.789062169E-1,-8.036888571E0,-5.519230124E0,9.766709347E0
8.700032833E0,1.061842668E0,-7.987423466E0,-5.554769500E0,9.786823166E0
8.709967833E0,1.494172345E0,-7.501063762E0,-5.887148627E0,9.651788825E0
8.719903833E0,1.299027662E0,-6.636710218E0,-5.832028095E0,8.930058627E0
8.729838833E0,7.202418977E-1,-6.273109299E0,-5.778448888E0,8.559271010E0
8.739774833E0,1.824342978E-1,-6.042158314E0,-5.868484899E0,8.424967322E0
8.749709833E0,1.577556856E-1,-5.643662966E0,-5.988928186E0,8.230618406E0
8.759645833E0,5.765742011E-1,-4.885458605E0,-5.791999810E0,7.599171362E0
8.769581833E0,1.341543059E0,-4.030268818E0,-5.683828660E0,7.095682684E0
8.779517292E0,2.239279235E0,-3.253591349E0,-5.804578925E0,7.020923348E0
8.789453292E0,3.109143195E0,-2.586901760E0,-6.183748056E0,7.389016995E0
8.799388292E0,3.790491461E0,-1.946735142E0,-6.840954046E0,8.059544372E0
8.809324292E0,4.061154980E0,-1.327516758E0,-7.878655899E0,8.962616766E0
8.819259292E0,4.109798844E0,-6.472850186E-1,-8.956604138E0,9.875737042E0
8.829195292E0,4.162799469E0,1.563019216E-2,-9.963943155E0,1.079857893E1
8.839130292E0,4.196153156E0,2.162873375E-1,-1.057043507E1,1.137491007E1
8.849066292E0,4.225078747E0,-3.484759265E-1,-1.063315582E1,1.144712752E1
8.859001292E0,3.990292866E0,-1.124341217E0,-1.105081074E1,1.180283857E1
8.868937292E0,3.335728649E0,-1.762120417E0,-1.083667400E1,1.147456568E1
8.878872292E0,2.692459205E0,-2.522636182E0,-9.850911798E0,1.051919641E1
8.888808292E0,2.294533084E0,-2.932020800E0,-8.512128625E0,9.290746029E0
8.898744292E0,2.151185961E0,-3.272594799E0,-7.020209212E0,8.038707305E0
8.908679292E0,2.054618025E0,-3.505532668E0,-5.733716519E0,7.027497395E0
8.918615292E0,1.725677646E0,-3.474766374E0,-4.713428843E0,6.104783055E0
8.928550292E0,1.341063588E0,-2.940357175E0,-3.236703420E0,4.573882475E0
8.938486292E0,1.307956068E0,-2.111920738E0,-2.169175358E0,3.297920559E0
8.948421292E0,1.601457350E0,-1.362299505E0,-1.897832977E0,2.832365724E0
8.958357292E0,1.983772283E0,-1.012371715E0,-2.011445693E0,3.001026947E0
8.968292292E0,2.520491131E0,-1.759661078E0,-2.436710764E0,3.922606531E0
8.978228292E0,2.793304087E0,-3.094565794E0,-2.877205492E0,5.065293340E0
8.988163292E0,2.395898952E0,-4.147963328E0,-3.072932850E0,5.691120089E0
8.998099292E0,1.420441002E0,-4.880117759E0,-2.859950359E0,5.832025208E0
9.008035292E0,2.895726109E-1,-5.068833135E0,-2.043344593E0,5.472858374E0
9.017970292E0,-1.307645727E-1,-4.717996103E0,-8.209607720E-1,4.790674607E0
9.027906292E0,4.201239064E-1,-4.331255997E0,8.610136145E-1,4.435947143E0
9.037841292E0,1.034330495E0,-4.166263359E0,2.249308087E0,4.846336433E0
9.047777292E0,1.602835977E0,-4.225117924E0,2.351617988E0,5.094193930E0
9.057712292E0,1.713137415E0,-4.329303027E0,1.190581400E0,4.805745371E0
9.067648292E0,1.424400005E0,-4.337928840E0,-3.740650964E-1,4.581098852E0
9.077583292E0,9.018590471E-1,-4.316499379E0,-1.429819059E0,4.635719920E0
9.087519292E0,4.647252980E-1,-3.976713877E0,-1.280323296E0,4.203504562E0
9.097454292E0,6.316692252E-1,-3.626603069E0,-3.727272534E-1,3.700024518E0
9.107390292E0,1.094408443E0,-3.669156473E0,3.344595659E-1,3.843475285E0
9.117326292E0,1.410163059E0,-4.361750104E0,5.493494189E-1,4.616839677E0
9.127261292E0,1.244748398E0,-5.134189219E0,7.785725516E-1,5.339988083E0
9.137197292E0,5.548452169E-1,-5.493742695E0,1.369167060E0,5.688908547E0
9.147132292E0,-3.553921594E-1,-5.042693158E0,2.465637524E0,5.624448975E0
9.157068292E0,-1.286602913E0,-4.270216913E0,3.805792454E0,5.862947701E0
9.167003292E0,-1.898005762E0,-3.285710104E0,5.886400183E0,7.003429437E0
9.176939292E0,-2.267635599E0,-2.790581331E0,9.177250575E0,9.856543182E0
9.186874292E0,-2.931652718E0,-3.216542513E0,1.307124711E1,1.377672800E1
9.196810292E0,-3.968269328E0,-3.469291626E0,1.637300139E1,1.720053256E1
9.206745292E0,-4.908766776E0,-3.151692506E0,1.812614984E1,1.904170331E1
9.216681292E0,-5.731902713E0,-3.355317698E0,1.812209772E1,1.930086245E1
9.226617292E0,-5.974281496E0,-3.795121286E0,1.716354728E1,1.856562254E1
9.236552292E0,-5.416443089E0,-4.634249065E0,1.573986488E1,1.727881554E1
9.246488292E0,-4.745849023E0,-5.406899849E0,1.395928948E1,1.570412085E1
9.256423292E0,-3.941485865E0,-5.624110461E0,1.221888913E1,1.401667510E1
9.266359292E0,-2.842264286E0,-5.727889768E0,1.097840583E1,1.270482515E1
9.276294292E0,-1.708620587E0,-5.719204314E0,1.047562130E1,1.205683723E1
9.286230292E0,-7.196717942E-1,-5.737770393E0,1.054979089E1,1.203071172E1
9.296165292E0,-1.715396194E-1,-6.014685756E0,1.091668730E1,1.246514871E1
9.306101292E0,8.235525504E-2,-6.526593699E0,1.124533942E1,1.300234080E1
9.316036292E0,3.363909012E-1,-7.352741536E0,1.146738860E1,1.362633363E1
9.325972292E0,5.616984460E-1,-8.504865214E0,1.133563446E1,1.418255428E1
9.335907292E0,5.225668323E-1,-9.837731005E0,1.031594320E1,1.426438612E1
9.345843292E0,5.877828019E-1,-1.102865564E1,8.900535772E0,1.418436713E1
9.355779292E0,7.966772854E-1,-1.224255632E1,7.386622058E0,1.432051205E1
9.365714292E0,9.909464939E-1,-1.361876284E1,5.567857908E0,1.474631201E1
9.375650292E0,8.550713816E-1,-1.454115058E1,3.374594214E0,1.495205984E1
9.385585292E0,7.701671791E-1,-1.462255201E1,1.551489092E0,1.472478534E1
9.395521292E0,6.043272062E-1,-1.466296914E1,3.478508592E-1,1.467953935E1
9.405456292E0,2.706906360E-1,-1.450516448E1,-7.002952909E-1,1.452458204E1
9.415392292E0,5.748620633E-1,-1.415097407E1,-1.730205145E0,1.426794110E1
9.425327292E0,1.286535963E0,-1.357319783E1,-2.483809209E0,1.385843361E1
9.435263292E0,1.912123572E0,-1.276908171E1,-2.756498204E0,1.320242200E1
9.445199292E0,2.276367247E0,-1.191325750E1,-2.709723987E0,1.242779772E1
9.455134292E0,2.177151107E0,-1.119816642E1,-2.646167969E0,1.171072683E1
9.465070292E0,1.868330704E0,-1.083115306E1,-2.445428377E0,1.125986928E1
9.475005292E0,1.631842406E0,-1.037518719E1,-2.339697855E0,1.076018610E1
9.484941292E0,1.491629975E0,-1.010082881E1,-2.555248443E0,1.052525521E1
9.494876292E0,1.467299126E0,-9.825382855E0,-2.877027737E0,1.034255305E1
9.504812292E0,1.349475392E0,-9.376422527E0,-3.141229498E0,9.980265829E0
9.514747292E0,1.238689367E0,-8.758071871E0,-3.196226070E0,9.405000549E0
9.524683292E0,1.107223567E0,-8.147012107E0,-3.310838806E0,8.863487119E0
9.534618292E0,1.065003600E0,-7.694403702E0,-3.604158532E0,8.563179300E0
9.544554292E0,9.512075007E-1,-7.059684935E0,-4.043130061E0,8.190900303E0
9.554489292E0,6.312785581E-1,-6.275512505E0,-4.446588525E0,7.717040840E0
9.564425292E0,3.614245856E-1,-5.648867573E0,-4.661701742E0,7.332925454E0
9.574361292E0,4.395480645E-1,-5.402786917E0,-4.657005551E0,7.146398371E0
9.584296292E0,7.027844507E-1,-5.234060832E0,-4.316049436E0,6.820379865E0
9.594232292E0,1.125941600E0,-5.129827196E0,-4.139173794E0,6.686974745E0
9.604167292E0,1.408024440E0,-4.818751815E0,-4.169065345E0,6.525642323E0
9.614103292E0,1.638371992E0,-4.164592225E0,-4.427832704E0,6.295537597E0
9.624038292E0,1.982530627E0,-3.382064617E0,-5.274333529E0,6.571710807E0
9.633974292E0,2.277865303E0,-2.954360672E0,-6.599672200E0,7.581067898E0
9.643909292E0,2.472428188E0,-2.887676101E0,-7.856800177E0,8.728166097E0
9.653845292E0,2.515792601E0,-2.768007571E0,-8.779337609E0,9.542947510E0
9.663780292E0,2.554230735E0,-2.538819521E0,-9.267955508E0,9.943072890E0
9.673716292E0,2.762746246E0,-2.213241876E0,-9.482415590E0,1.012163089E1
9.683652292E0,3.069061409E0,-1.894958632E0,-9.658210375E0,1.030975430E1
9.693587292E0,3.348783435E0,-1.984618667E0,-9.301296331E0,1.008301419E1
9.703523292E0,3.404358881E0,-2.383773581E0,-8.508449557E0,9.469200058E0
9.713458292E0,3.254164376E0,-2.626232471E0,-7.579439256E0,8.656476316E0
9.723394292E0,2.782670926E0,-2.599928772E0,-6.608661125E0,7.627403815E0
9.733329292E0,2.140880536E0,-2.410200073E0,-5.811403795E0,6.645663844E0
9.743265292E0,1.516229504E0,-1.994639626E0,-5.292364004E0,5.855480842E0
9.753200292E0,1.075381019E0,-1.367954932E0,-5.431530075E0,5.703443170E0
9.763136292E0,7.901874608E-1,-8.788417751E-1,-5.656879427E0,5.779017559E0
9.773071292E0,6.574182433E-1,-4.997773093E-1,-6.168514305E0,6.223547609E0
9.783007583E0,6.646857476E-1,-2.581077933E-1,-6.865805297E0,6.902732006E0
9.792943583E0,9.437400216E-1,-1.105778646E-1,-7.050376167E0,7.114118132E0
9.802878583E0,1.397447119E0,-4.868420988E-1,-6.784576362E0,6.944087419E0
9.812814583E0,1.899583780E0,-1.193868704E0,-6.289107866E0,6.677321227E0
9.822749583E0,2.797903507E0,-1.763810263E0,-5.581703530E0,6.488043232E0
9.832685583E0,3.054016523E0,-1.800340158E0,-4.756296535E0,5.932166412E0
9.842620583E0,2.191443310E0,-1.542672075E0,-3.902853603E0,4.734398289E0
9.852556583E0,1.791073929E0,-1.666181057E0,-3.296393552E0,4.104913590E0
9.862491583E0,1.810230431E0,-2.160040984E0,-3.028205159E0,4.136754495E0
9.872427583E0,1.671221065E0,-2.771084960E0,-2.934730985E0,4.368585315E0
9.882362583E0,1.332214119E0,-2.830047698E0,-1.185808902E0,3.345161758E0
9.892298583E0,2.145778163E0,-2.521508839E0,-6.546191812E-1,3.375040300E0
9.902233583E0,3.907751523E0,-2.662278802E0,1.348607665E0,4.917010578E0
9.912169583E0,5.009183350E0,-3.464241970E0,3.408270083E0,6.979197319E0
9.922105583E0,4.675804057E0,-4.431225843E0,5.077196993E0,8.202245751E0
9.932040583E0,2.980596837E0,-4.789136837E0,5.434741951E0,7.833020440E0
9.941976583E0,6.470037675E-1,-4.605909072E0,4.097693646E0,6.198718051E0
9.951911583E0,-1.178857952E0,-4.160615534E0,1.663677279E0,4.633384268E0
9.961847583E0,-2.282622013E0,-4.000781309E0,-1.072216798E0,4.729298383E0
9.971782583E0,-2.551623462E0,-3.947863423E0,-2.499884666E0,5.324080318E0
9.981718583E0,-1.317540824E0,-3.809449888E0,-1.856697961E0,4.437921765E0
9.991653583E0,3.077831063E-1,-4.126454053E0,-2.110996878E-1,4.143297789E0
1.000158958E1,1.048907750E0,-4.638830358E0,1.702216862E0,5.051385632E0
1.001152458E1,6.666740933E-1,-5.072946067E0,3.971321282E0,6.476930513E0
1.002146058E1,-5.389058897E-1,-5.224921634E0,6.254257876E0,8.167372112E0
1.003139658E1,-1.960806759E0,-5.161477590E0,8.258438988E0,9.934154648E0
1.004133158E1,-3.376531689E0,-5.042409568E0,1.057176239E1,1.218970962E1
1.005126758E1,-4.998768289E0,-4.897232851E0,1.370553669E1,1.538870722E1
1.006120258E1,-6.540597196E0,-4.644324110E0,1.681433051E1,1.862983813E1
1.007113858E1,-7.431964291E0,-4.328718891E0,1.899407311E1,2.085058065E1
1.008107358E1,-7.292478962E0,-4.419688118E0,1.950112844E1,2.128398231E1
1.009100958E1,-6.219977989E0,-5.059746562E0,1.837795901E1,2.005089870E1
1.010094458E1,-4.932541555E0,-5.958060150E0,1.634217370E1,1.808024027E1
1.011088058E1,-3.441812343E0,-6.745247405E0,1.384668380E1,1.578211288E1
1.012081558E1,-1.743907072E0,-7.311542054E0,1.145510243E1,1.370106677E1
1.013075158E1,-3.888990439E-1,-7.554762252E0,1.028558212E1,1.276788450E1
1.014068758E1,6.120219593E-1,-8.032135370E0,1.035523766E1,1.311947851E1
1.015062258E1,1.575501706E0,-8.536078820E0,1.062458965E1,1.371964841E1
1.016055858E1,2.769070010E0,-9.064220388E0,1.047473720E1,1.412614454E1
1.017049358E1,3.365707323E0,-1.007743176E1,9.902440971E0,1.452380645E1
1.018042958E1,3.095371248E0,-1.118234385E1,8.670619744E0,1.448467411E1
1.019036458E1,2.411366446E0,-1.195239877E1,6.654274085E0,1.389078428E1
1.020030058E1,1.669117967E0,-1.243765218E1,4.332269320E0,1.327590690E1
1.021023558E1,7.991884453E-1,-1.282259309E1,2.268160679E0,1.304615455E1
1.022017158E1,2.023644593E-1,-1.305580812E1,5.885930067E-1,1.307063574E1
1.023010658E1,-5.174676217E-2,-1.322787647E1,-6.135764050E-1,1.324220034E1
1.024004258E1,7.926032379E-2,-1.329369390E1,-1.846135843E0,1.342150503E1
1.024997858E1,1.281972942E0,-1.272743901E1,-3.166533909E0,1.317793973E1
1.025991358E1,2.974947257E0,-1.161859058E1,-3.628919151E0,1.253040352E1
1.026984958E1,3.466334104E0,-1.045735343E1,-3.548702661E0,1.157432518E1
1.027978458E1,3.322716255E0,-9.596891209E0,-3.763293137E0,1.083065739E1
1.028972058E1,2.963387311E0,-9.053603014E0,-3.899772413E0,1.029357162E1
1.029965558E1,2.380582171E0,-8.895842797E0,-3.842369127E0,9.978326064E0
1.030959158E1,1.842470808E0,-8.571874890E0,-3.509017024E0,9.443777755E0
1.031952658E1,1.382468599E0,-8.505095594E0,-2.811778657E0,9.063882706E0
1.032946258E1,1.255553321E0,-8.466533791E0,-2.336400171E0,8.872281237E0
1.033939758E1,1.241990120E0,-8.239168904E0,-2.352066908E0,8.657867083E0
1.034933358E1,7.311930017E-1,-8.047954427E0,-2.336413035E0,8.412077005E0
1.035926958E1,4.752594955E-2,-7.752851885E0,-2.128740108E0,8.039931935E0
1.036920458E1,-2.458303946E-1,-7.312679338E0,-1.404351365E0,7.450363376E0
1.037914058E1,-1.915116616E-1,-7.282085536E0,-5.660774258E-1,7.306564865E0
1.038907558E1,1.454211304E-1,-6.976369713E0,-6.573290733E-1,7.008777582E0
1.039901158E1,2.261688396E-1,-6.060722639E0,-2.234550591E0,6.463491904E0
1.040894658E1,2.963656868E-1,-5.286624961E0,-3.948256940E0,6.604920058E0
1.041888258E1,6.488003245E-1,-4.740638861E0,-4.754354090E0,6.745256221E0
1.042881758E1,1.104651303E0,-4.458070995E0,-4.871313021E0,6.695098360E0
1.043875358E1,1.589393959E0,-3.832337644E0,-4.958543538E0,6.465302700E0
1.044868858E1,2.215500363E0,-2.880774633E0,-5.316888980E0,6.440233907E0
1.045862458E1,3.003961433E0,-1.983129382E0,-6.323605853E0,7.276302456E0
1.046855958E1,3.858938090E0,-1.476397979E0,-7.732105379E0,8.766790049E0
1.047849558E1,4.372882033E0,-1.237619326E0,-8.952163178E0,1.003967253E1
1.048843158E1,4.363414806E0,-1.107757344E0,-9.665944487E0,1.066287944E1
1.049836658E1,4.235736760E0,-9.972250879E-1,-9.950916728E0,1.086078577E1
1.050830258E1,4.367880910E0,-7.789251387E-1,-1.008314800E1,1.101612371E1
1.051823758E1,4.606966833E0,-5.813769579E-1,-1.025401066E1,1.125641493E1
1.052817358E1,4.804529340E0,-6.581210786E-1,-1.042651989E1,1.149908443E1
1.053810858E1,4.749693274E0,-7.193414265E-1,-1.035124752E1,1.141163281E1
1.054804458E1,4.329429035E0,-7.855593896E-1,-9.763583048E0,1.070927697E1
1.055797958E1,3.777414747E0,-1.001014668E0,-8.827937912E0,9.654189780E0
1.056791558E1,3.139625899E0,-1.057682959E0,-7.701495205E0,8.383851885E0
1.057785058E1,2.462520666E0,-8.713210863E-1,-6.811076528E0,7.294790739E0
1.058778658E1,2.172083617E0,-6.669579756E-1,-6.223712021E0,6.625509150E0
1.059772258E1,2.178853523E0,-6.274612033E-1,-5.910565556E0,6.330552538E0
1.060765758E1,2.153678921E0,-8.947906405E-1,-5.627971963E0,6.092048227E0
1.061759358E1,1.597716594E0,-1.450273789E0,-5.407482816E0,5.822101234E0
1.062752858E1,9.494451499E-1,-1.790563028E0,-5.286551871E0,5.661730543E0
1.063746458E1,6.803238335E-1,-1.853236409E0,-4.953987388E0,5.332852590E0
1.064739958E1,7.900018117E-1,-1.942407618E0,-4.390414032E0,4.865468692E0
1.065733558E1,1.182087150E0,-2.048487804E0,-3.825424481E0,4.497499836E0
1.066727058E1,1.707967745E0,-1.840057370E0,-3.351277272E0,4.187364839E0
1.067720658E1,2.226466377E0,-1.810745863E0,-3.005509484E0,4.155603490E0
1.068714158E1,2.655868499E0,-2.427780311E0,-2.791422746E0,4.554096581E0
1.069707758E1,2.840886682E0,-3.421954322E0,-2.414363290E0,5.060588762E0
1.070701258E1,2.789235302E0,-4.263480336E0,-1.845480663E0,5.418754195E0
1.071694858E1,2.578393477E0,-4.619848834E0,-1.073617206E0,5.398497020E0
1.072688458E1,2.170486012E0,-4.687515737E0,4.700108886E-2,5.165851568E0
1.073681958E1,1.477791370E0,-4.432530942E0,9.141139340E-1,4.760966516E0
1.074675558E1,9.315262114E-1,-3.913954250E0,1.205274868E0,4.199936483E0
1.075669058E1,8.714771339E-1,-3.520350682E0,9.357550639E-1,3.745394353E0
1.076662658E1,8.932091148E-1,-3.144271220E0,7.318603152E-1,3.349609462E0
1.077656083E1,8.302799182E-1,-2.602332562E0,7.184146428E-1,2.824467933E0
1.078649683E1,7.324771234E-1,-2.085422326E0,8.655516386E-1,2.373749914E0
1.079643183E1,1.602309582E-1,-2.248415802E0,8.529228222E-1,2.410088155E0
1.080636783E1,-9.269124658E-1,-2.568343867E0,4.882881153E-1,2.773802845E0
1.081630283E1,-1.758991280E0,-2.974900187E0,8.363447964E-2,3.457032856E0
1.082623883E1,-2.146989560E0,-3.733929297E0,-7.705168426E-2,4.307868281E0
1.083617483E1,-1.719983627E0,-4.118714679E0,5.661022764E-1,4.499180600E0
1.084610983E1,-1.001005605E0,-4.055674970E0,2.441950454E0,4.838763654E0
1.085604583E1,-1.682674444E0,-4.017696719E0,6.223552392E0,7.596438941E0
1.086598083E1,-2.924451579E0,-4.173617110E0,1.130285614E1,1.239863112E1
1.087591683E1,-3.677448117E0,-4.169326131E0,1.588491559E1,1.682965978E1
1.088585183E1,-4.559633915E0,-4.126955452E0,1.878745005E1,1.976841678E1
1.089578783E1,-5.884654205E0,-3.894694106E0,1.982686046E1,2.104524157E1
1.090572283E1,-6.549459820E0,-4.316110832E0,1.913552778E1,2.068073161E1
1.091565883E1,-6.166713948E0,-5.142297553E0,1.766991616E1,1.940869707E1
1.092559383E1,-4.660829045E0,-6.098727202E0,1.629603215E1,1.801328578E1
1.093552983E1,-2.445149904E0,-6.827805997E0,1.489700394E1,1.656859738E1
1.094546583E1,-3.891561753E-1,-7.168071848E0,1.349361839E1,1.528431987E1
1.095540083E1,1.224424792E0,-7.211601444E0,1.282769186E1,1.476672239E1
1.096533683E1,2.188787943E0,-7.505519341E0,1.329301913E1,1.542167212E1
1.097527183E1,2.738788157E0,-8.038846804E0,1.434163306E1,1.666752703E1
1.098520783E1,2.992525449E0,-9.160495378E0,1.503701318E1,1.786005738E1
1.099514283E1,2.610097080E0,-1.106873362E1,1.433139576E1,1.829531019E1
1.100507883E1,1.911472338E0,-1.313677335E1,1.225129206E1,1.806440416E1
1.101501383E1,1.386711631E0,-1.465858256E1,9.142892920E0,1.733174840E1
1.102494983E1,1.504053408E0,-1.544201941E1,5.808459138E0,1.656672380E1
1.103488483E1,2.094994365E0,-1.579125489E1,3.042595156E0,1.621758667E1
1.104482083E1,2.404892116E0,-1.577209473E1,1.003971605E0,1.598594499E1
1.105475583E1,2.311605638E0,-1.522284120E1,-4.380459148E-1,1.540358073E1
1.106469183E1,2.154293317E0,-1.467808770E1,-1.432141573E0,1.490430366E1
1.107462783E1,1.676576237E0,-1.420516490E1,-2.155814617E0,1.446530865E1
1.108456283E1,1.461882997E0,-1.359283746E1,-2.592176533E0,1.391480187E1
1.109449883E1,1.188537652E0,-1.289757545E1,-2.688938012E0,1.322839604E1
1.110443383E1,8.166176064E-1,-1.244331696E1,-2.872458138E0,1.279664085E1
1.111436983E1,8.719738548E-1,-1.214453359E1,-3.103319660E0,1.256505581E1
1.112430483E1,1.012644780E0,-1.165930357E1,-2.916864817E0,1.206121510E1
1.113424083E1,5.954773723E-1,-1.133678519E1,-2.566351136E0,1.163887666E1
1.114417583E1,3.652469470E-1,-1.104121429E1,-2.701480290E0,1.137276633E1
1.115411183E1,6.394145201E-1,-1.027679492E1,-3.114394579E0,1.075736112E1
1.116404683E1,6.296487929E-1,-9.168454024E0,-3.925552787E0,9.993346360E0
1.117398283E1,2.939290059E-1,-8.510507192E0,-4.977222469E0,9.863461382E0
1.118391883E1,6.487792745E-2,-8.259389160E0,-5.960783783E0,1.018590505E1
1.119385383E1,-1.086811741E-1,-7.896196377E0,-6.743507273E0,1.038444121E1
1.120378983E1,-1.229534966E-1,-7.092909983E0,-6.991145627E0,9.959950139E0
1.121372483E1,1.159937020E-1,-6.677667625E0,-7.135247333E0,9.773251964E0
1.122366083E1,4.133139467E-1,-6.268505786E0,-6.854319026E0,9.297670812E0
1.123359583E1,8.996183941E-1,-5.740912102E0,-6.692240641E0,8.863039536E0
1.124353183E1,1.361813017E0,-5.205827551E0,-6.503532280E0,8.441037099E0
1.125346683E1,1.947947854E0,-4.770681270E0,-6.037389325E0,7.937504046E0
1.126340283E1,2.619388598E0,-4.192747153E0,-5.699904994E0,7.545146934E0
1.127333783E1,3.320740481E0,-3.478158343E0,-6.050213438E0,7.728517675E0
1.128327383E1,3.963361468E0,-2.895384486E0,-7.048845366E0,8.589394999E0
1.129320883E1,4.179032509E0,-2.406595849E0,-8.406393424E0,9.691412007E0
1.130314483E1,4.130852621E0,-1.961649635E0,-9.563178502E0,1.060030168E1
1.131308083E1,4.068909265E0,-1.514797229E0,-1.049393595E1,1.135664233E1
1.132301583E1,4.122823809E0,-1.558596382E0,-1.110043839E1,1.194347652E1
1.133295183E1,4.157990718E0,-2.085157447E0,-1.112338989E1,1.205680600E1
1.134288683E1,3.962126536E0,-2.699421485E0,-1.023328930E1,1.130068727E1
1.135282283E1,3.563319531E0,-2.768711575E0,-9.039621152E0,1.010335392E1
1.136275783E1,3.032865974E0,-2.456235786E0,-7.868524429E0,8.783225315E0
1.137269383E1,2.719686180E0,-2.359110610E0,-6.669751664E0,7.579424982E0
1.138262883E1,2.281470112E0,-2.144316652E0,-5.335407697E0,6.186256951E0
1.139256483E1,1.613304686E0,-1.569962785E0,-4.315006585E0,4.866910415E0
1.140249983E1,1.101715709E0,-8.602096224E-1,-4.111539853E0,4.342637224E0
1.141243583E1,1.229094670E0,-3.451716650E-1,-4.228190635E0,4.416719737E0
1.142237183E1,1.665995700E0,-1.120186186E-1,-4.411295609E0,4.716738152E0
1.143230683E1,2.007148574E0,-2.250470513E-1,-4.739294001E0,5.151718083E0
1.144224283E1,2.080185852E0,-9.272795248E-1,-4.844135748E0,5.352819037E0
1.145217783E1,2.004968440E0,-1.865887445E0,-4.567465383E0,5.325708820E0
1.146211383E1,1.815937606E0,-2.960199702E0,-4.505058635E0,5.688230390E0
1.147204883E1,1.412779688E0,-4.633458229E0,-4.159361598E0,6.384760803E0
1.148198483E1,5.596443191E-1,-5.901760819E0,-3.358883915E0,6.813668886E0
1.149191983E1,-3.137159836E-1,-6.086457404E0,-2.112913595E0,6.450409701E0
1.150185583E1,-7.909848748E-1,-5.252293620E0,-3.980164611E-1,5.326411779E0
1.151179083E1,-2.864616729E-1,-4.147989056E0,1.581317493E0,4.448419777E0
1.152172683E1,9.974880664E-1,-3.256619622E0,4.007274057E0,5.259163353E0
1.153166183E1,2.871658239E0,-3.243983788E0,6.487424955E0,7.801059826E0
1.154159783E1,4.249931168E0,-3.373379747E0,8.038252142E0,9.698201037E0
1.155153383E1,3.998447978E0,-2.810228561E0,7.605013808E0,9.039978198E0
1.156146883E1,2.480087748E0,-2.122307147E0,4.924614485E0,5.908201985E0
1.157140483E1,4.715459289E-1,-1.838690291E0,1.291008498E0,2.295613315E0
1.158133983E1,-1.195067018E0,-1.285767054E0,-1.945389113E0,2.620290231E0
1.159127583E1,-2.017681894E0,-1.218790122E0,-3.691484066E0,4.379902305E0
1.160121083E1,-1.880108020E0,-1.747274044E0,-3.233973355E0,4.128723340E0
1.161114683E1,-9.671920341E-1,-2.369668343E0,-1.287421816E0,2.865003215E0
1.162108183E1,-2.835110400E-1,-2.828246463E0,7.367404014E-1,2.936348580E0
1.163101783E1,-2.711943005E-1,-3.060519796E0,2.372257490E0,3.881743599E0
1.164095283E1,-6.527223444E-1,-3.307674877E0,3.792940859E0,5.074757129E0
1.165088883E1,-1.434632487E0,-3.464294010E0,5.264292106E0,6.463147433E0
1.166082383E1,-2.473217562E0,-3.182956691E0,6.668227880E0,7.791872783E0
1.167075983E1,-3.259227772E0,-2.502188469E0,8.216295766E0,9.186458998E0
1.168069583E1,-4.025757983E0,-1.800757064E0,1.017335534E1,1.108812933E1
1.169063083E1,-4.723071486E0,-1.632621840E0,1.227812376E1,1.325613750E1
1.170056683E1,-4.928069020E0,-1.710406034E0,1.442677437E1,1.534089866E1
1.171050183E1,-5.003571192E0,-1.877598395E0,1.598690506E1,1.685651903E1
1.172043783E1,-4.735906709E0,-2.302334000E0,1.621997040E1,1.705335726E1
1.173037283E1,-4.074217660E0,-2.789908317E0,1.516642376E1,1.595002344E1
1.174030883E1,-3.184590696E0,-3.377740016E0,1.337042574E1,1.415341055E1
1.175024383E1,-2.247744395E0,-4.235962462E0,1.140306455E1,1.237035222E1
1.176017983E1,-1.443577557E0,-4.816085777E0,1.008796728E1,1.127145430E1
1.177011483E1,-5.773496881E-1,-5.290790518E0,9.715156993E0,1.107745785E1
1.178005079E1,2.317685719E-1,-5.830935835E0,1.006764469E1,1.163662318E1
1.178998679E1,9.414707172E-1,-6.528385870E0,1.037254191E1,1.229210376E1
1.179992179E1,1.413219398E0,-7.183705548E0,1.030423123E1,1.264041121E1
1.180985779E1,1.865593915E0,-7.740998409E0,9.958571903E0,1.275055494E1
1.181979279E1,2.401342710E0,-8.546573403E0,9.601214640E0,1.307645542E1
1.182972879E1,2.713391068E0,-9.704692816E0,9.327571964E0,1.373124730E1
1.183966379E1,2.682302884E0,-1.081259400E1,9.029576220E0,1.434015985E1
1.184959979E1,2.657035604E0,-1.176720809E1,8.573485798E0,1.479971902E1
1.185953479E1,2.672058270E0,-1.303841616E1,7.687282963E0,1.536992228E1
1.186947079E1,2.254309649E0,-1.423198958E1,5.944792818E0,1.558755918E1
1.187940579E1,1.652706880E0,-1.477189341E1,3.793365952E0,1.534046610E1
1.188934179E1,1.179972504E0,-1.490407089E1,1.964871451E0,1.507927001E1
1.189927779E1,9.854967427E-1,-1.475737360E1,6.250843102E-1,1.480344588E1
1.190921279E1,1.324695915E0,-1.422465717E1,5.931707919E-2,1.428632946E1
1.191914879E1,1.698494671E0,-1.383318492E1,2.204274586E-1,1.393881191E1
1.192908379E1,1.720793028E0,-1.339816377E1,2.132883006E-1,1.350990055E1
1.193901979E1,1.659261608E0,-1.300467773E1,-5.673149890E-1,1.312237167E1
1.194895479E1,1.704730288E0,-1.242483625E1,-1.561376733E0,1.263805992E1
1.195889079E1,1.775914438E0,-1.156816419E1,-2.078617337E0,1.188683915E1
1.196882579E1,1.702718700E0,-1.090224585E1,-1.989361929E0,1.121230469E1
1.197876179E1,1.548115979E0,-1.055300569E1,-2.064944354E0,1.086400421E1
1.198869679E1,1.315781835E0,-9.973179417E0,-2.365953022E0,1.033408550E1
1.199863279E1,1.001038057E0,-9.466197753E0,-2.707292130E0,9.896484617E0
1.200856779E1,9.828859609E-1,-8.822766634E0,-3.189036918E0,9.432774372E0
1.201850379E1,1.280589198E0,-7.929251271E0,-3.955751901E0,8.953262396E0
1.202843979E1,1.308178847E0,-7.547538017E0,-4.487683634E0,8.877835683E0
1.203837479E1,1.352779215E0,-7.150589257E0,-4.635474933E0,8.628358256E0
1.204831079E1,1.480504332E0,-6.076463928E0,-5.175585752E0,8.118004362E0
1.205824579E1,2.176296244E0,-5.200497229E0,-6.078498759E0,8.290330750E0
1.206818179E1,3.039724758E0,-4.680848157E0,-6.941434354E0,8.906951048E0
1.207811679E1,3.511788312E0,-4.228242676E0,-8.057443289E0,9.753619104E0
1.208805279E1,3.559330268E0,-3.793192289E0,-8.863726965E0,1.027729514E1
1.209798779E1,3.218049341E0,-3.719671154E0,-9.437289703E0,1.064209716E1
1.210792379E1,2.913114998E0,-3.626412157E0,-9.827720572E0,1.087295708E1
1.211785879E1,2.713324702E0,-3.547667120E0,-9.681692793E0,1.066223467E1
1.212779479E1,2.627709186E0,-3.483513224E0,-9.592473637E0,1.053827644E1
1.213772979E1,2.506379753E0,-3.172929009E0,-1.002791169E1,1.081242021E1
1.214766579E1,2.543382396E0,-2.554388902E0,-1.074433127E1,1.133288803E1
1.215760179E1,2.786014363E0,-2.322970725E0,-1.099038327E1,1.157352986E1
1.216753679E1,3.009747253E0,-2.604648060E0,-1.055236250E1,1.127808159E1
1.217747279E1,2.849338247E0,-2.944102317E0,-1.019658866E1,1.098894386E1
1.218740779E1,2.092923719E0,-3.226656734E0,-9.690134418E0,1.042546634E1
1.219734379E1,1.131143576E0,-3.361760745E0,-9.023174103E0,9.695287102E0
1.220727879E1,5.240558258E-1,-3.375575961E0,-8.470940838E0,9.133782692E0
1.221721479E1,3.681594086E-1,-3.476781909E0,-7.918767214E0,8.656236363E0
1.222714979E1,3.829695287E-1,-3.458667235E0,-6.916515859E0,7.742560063E0
1.223708579E1,3.246917921E-1,-3.347023423E0,-5.589774442E0,6.523309655E0
1.224702079E1,3.169268359E-1,-3.149024422E0,-4.450839744E0,5.461389187E0
1.225695679E1,1.124986750E-1,-2.932120788E0,-3.521845815E0,4.584036018E0
1.226689179E1,-2.147287622E-2,-2.809650271E0,-2.480587100E0,3.748053907E0
1.227682779E1,-6.968068421E-2,-2.798331231E0,-1.119003952E0,3.014578398E0
1.228676379E1,-4.446061984E-1,-3.037988720E0,2.364714874E-1,3.079442953E0
1.229669879E1,-9.773365878E-1,-2.931461222E0,1.354310309E0,3.373841744E0
1.230663479E1,-1.043684944E0,-2.748784849E0,1.829433272E0,3.462935533E0
1.231656979E1,-8.221070456E-1,-3.066485125E0,1.602144398E0,3.556129594E0
1.232650579E1,-6.963928592E-1,-3.027833276E0,1.163883013E0,3.317734322E0
1.233644079E1,-9.107147283E-1,-2.489909901E0,1.794529780E0,3.201466814E0
1.234637679E1,-1.307909875E0,-2.402150795E0,3.767741699E0,4.655838721E0
1.235631179E1,-1.555140824E0,-2.644452980E0,5.871395643E0,6.624566503E0
1.236624779E1,-1.435177447E0,-2.927127265E0,7.085746560E0,7.799718754E0
1.237618279E1,-1.225199840E0,-3.174528807E0,7.033312238E0,7.813208613E0
1.238611879E1,-1.110022190E0,-3.139932001E0,5.679708712E0,6.584103074E0
1.239605479E1,-1.211433082E0,-2.654041829E0,3.670770890E0,4.688930269E0
1.240598979E1,-1.541977572E0,-1.725120406E0,2.315590954E0,3.273483880E0
1.241592579E1,-1.960514983E0,-1.102010116E0,2.354732215E0,3.256195495E0
1.242586079E1,-2.168668697E0,-1.045538877E0,3.545646906E0,4.285777344E0
1.243579679E1,-1.674051702E0,-1.239949442E0,4.748512137E0,5.185392100E0
1.244573179E1,-1.171381921E0,-1.323244198E0,5.148317261E0,5.443186699E0
1.245566779E1,-8.359533984E-1,-1.020247330E0,4.810278615E0,4.987835508E0
1.246560279E1,-1.415030939E-1,-3.337350959E-1,5.761025355E0,5.772418503E0
1.247553879E1,1.478112090E0,2.290377760E-1,7.355482711E0,7.506024218E0
1.248547379E1,6.972103000E-1,4.484223837E-1,5.676216754E0,5.736429332E0
1.249540979E1,-8.005015837E-1,1.207223745E0,5.432529949E0,5.622328130E0
1.250534479E1,-8.069464579E-1,2.892623430E-1,5.136688904E0,5.207725817E0
1.251528079E1,-1.124485863E0,-1.575684285E-1,4.278464996E0,4.426574181E0
1.252521679E1,-1.509386361E0,-6.527831554E-2,3.107378798E0,3.455186165E0
1.253515179E1,-1.518014367E0,-2.407380545E-1,1.945879110E0,2.479670933E0
1.254508779E1,-1.811089387E0,-3.753988463E-1,9.027253121E-1,2.058125858E0
1.255502279E1,-1.992549977E0,-3.451792663E-1,-7.648508906E-2,2.023673419E0
1.256495879E1,-1.761152265E0,-3.238918930E-1,-1.219302923E0,2.166393980E0
1.257489379E1,-1.470405898E0,-4.290692693E-1,-2.038961520E0,2.550207447E0
1.258482979E1,-1.224900097E0,-3.646768069E-1,-2.245144284E0,2.583416784E0
1.259476479E1,-7.823540191E-1,-2.120779270E-1,-1.904733422E0,2.070039678E0
1.260470079E1,-3.878769507E-1,-8.386485994E-2,-1.353416415E0,1.410396340E0
1.261463579E1,2.404168962E-1,-9.253218770E-2,-5.708548933E-1,6.262889101E-1
1.262457179E1,5.954661164E-1,-8.149615288E-2,2.728427768E-2,6.016360615E-1
1.263450679E1,2.898727924E-2,1.440619451E-1,-3.173769253E-1,3.497459351E-1
1.264444279E1,-1.457212387E-1,2.941839445E-1,-4.604425049E-1,5.654963951E-1
1.265437879E1,1.093220289E-1,5.052099574E-1,-4.928466046E-1,7.142031802E-1
1.266431379E1,2.369861886E-1,6.774303389E-1,-5.754712701E-1,9.199138548E-1
1.267424979E1,3.275656986E-1,7.715734345E-1,-3.589477050E-1,9.118488398E-1
1.268418479E1,3.025016087E-1,7.340343100E-1,-2.074884474E-2,7.941939978E-1
1.269412079E1,4.820409501E-1,7.274351424E-1,4.552104163E-1,9.842468629E-1
1.270405579E1,5.728604883E-1,6.669901353E-1,7.008724111E-1,1.124396334E0
1.271399179E1,4.643323651E-1,5.570589727E-1,5.671805030E-1,9.206589854E-1
1.272392679E1,2.763201159E-1,5.353131777E-1,4.171824646E-1,7.327715971E-1
1.273386279E1,2.198077999E-1,6.235336286E-1,3.376012748E-1,7.423505073E-1
1.274379779E1,2.790519351E-1,5.846765417E-1,3.148439115E-1,7.203078019E-1
1.275373379E1,3.215123686E-1,4.860591567E-1,3.685067332E-1,6.895077370E-1
1.276366879E1,4.037429318E-2,3.702509576E-1,3.037026268E-1,4.805737620E-1
1.277360479E1,-4.232265852E-1,2.972356063E-1,1.891036320E-1,5.506631745E-1
1.278354117E1,-7.395771781E-1,1.489677590E-1,9.700940073E-2,7.606422414E-1
1.279347617E1,-8.993864058E-1,-3.993765235E-2,1.390953201E-1,9.109546811E-1
1.280341217E1,-9.920609732E-1,-1.414821535E-1,1.210695237E-1,1.009385954E0
1.281334717E1,-8.188537279E-1,-6.866092980E-2,1.018731147E-1,8.280180448E-1
1.282328317E1,-6.159085670E-1,9.152529716E-2,1.242919242E-1,6.349556877E-1
1.283321817E1,-4.585094154E-1,8.225044370E-2,3.226025820E-2,4.669440478E-1
1.284315417E1,-3.982434793E-1,5.273486853E-2,4.780449629E-2,4.045542053E-1
1.285308917E1,-3.487735498E-1,1.095125020E-1,7.307733178E-2,3.727952166E-1
1.286302517E1,-2.505761410E-1,2.087572932E-1,1.224886429E-1,3.483840949E-1
1.287296017E1,-1.350529937E-1,2.697618788E-1,1.582899749E-1,3.406853366E-1
1.288289617E1,-1.410553068E-1,2.129848301E-1,8.667327762E-2,2.697617365E-1
1.289283117E1,-1.579663315E-1,1.299339026E-1,-5.411013365E-3,2.046105081E-1
1.290276717E1,-2.190137480E-1,1.180546993E-1,-9.759587646E-2,2.672618359E-1
1.291270317E1,-3.544085115E-1,7.982209504E-2,-2.093420148E-1,4.192863449E-1
1.292263817E1,-4.223470178E-1,1.917594373E-2,-3.427170038E-1,5.442422852E-1
1.293257417E1,-3.548260027E-1,-2.171071172E-2,-3.802263075E-1,5.205236711E-1
1.294250917E1,-3.392580834E-1,1.187452555E-2,-1.496191388E-1,3.709756572E-1
1.295244517E1,-2.565807930E-1,2.980910540E-2,1.676583838E-1,3.079474302E-1
1.296238017E1,-2.053471971E-1,5.815055966E-2,2.597075915E-1,3.361502522E-1
1.297231617E1,-2.148895606E-1,1.058018589E-1,-3.355588424E-1,4.122757492E-1
1.298225117E1,-1.046242297E-2,2.821649927E-1,-2.371156459E0,2.387909023E0
1.299218717E1,2.046937707E-1,1.706609291E-1,-6.582444549E-2,2.745132968E-1
1.300212217E1,2.140300199E-1,2.609349221E-1,1.059283342E0,1.111745061E0
1.301205817E1,1.372742048E-1,3.119834536E-1,1.018308393E0,1.073838846E0
1.302199317E1,-7.179094434E-2,3.214337236E-1,1.167295448E0,1.212869425E0
1.303192917E1,-3.164419556E-1,3.089779848E-1,1.060235853E0,1.148783257E0
1.304186517E1,-3.423334265E-1,3.324674195E-1,6.387001365E-1,7.972857859E-1