"Time (s)","Linear Acceleration x (m/s^2)","Linear Acceleration y (m/s^2)","Linear Acceleration z (m/s^2)","Absolute acceleration (m/s^2)"
-4.254583328E-4,9.685927346E-1,7.692123288E-1,-4.845774722E-1,1.328410636E0
9.509541647E-3,1.245032426E0,8.828658289E-1,-7.127206242E-1,1.684496513E0
1.944554166E-2,1.452115369E0,9.931332064E-1,-1.073052950E0,2.060678346E0
2.938054164E-2,1.623143211E0,1.078238845E0,-1.638368776E0,2.545868248E0
3.931654166E-2,1.660229176E0,1.009914715E0,-2.115288150E0,2.872408851E0
4.925154167E-2,1.434121586E0,1.002063659E0,-2.384384031E0,2.957384572E0
5.918654165E-2,1.088331140E0,1.119771618E0,-2.486736032E0,2.936359862E0
6.912254167E-2,6.453894974E-1,1.179403862E0,-2.249520925E0,2.620661265E0
7.905754165E-2,2.202482414E-1,1.166352877E0,-1.706292372E0,2.078538424E0
8.899354166E-2,7.324922530E-1,1.452258918E0,-9.517173779E-1,1.884507053E0
9.892854164E-2,2.622018676E0,1.775297118E0,-1.116514134E-1,3.168458273E0
1.088645417E-1,1.884603798E0,1.382523270E0,4.134133494E-1,2.373607521E0
1.187995417E-1,1.197672099E0,9.622832966E-1,2.828397614E-1,1.562179865E0
1.287355417E-1,7.198553237E-1,6.457413536E-1,-6.789400899E-1,1.181580818E0
1.386705417E-1,4.246781565E-2,5.820663446E-1,-1.639132422E0,1.739930988E0
1.486055416E-1,-1.693538571E-1,6.682937720E-1,-1.984892902E0,2.101213251E0
1.585415417E-1,7.250262357E-2,6.390378132E-1,-1.918712946E0,2.023631717E0
1.684765416E-1,3.632409135E-1,6.968582976E-1,-1.556679080E0,1.743790471E0
1.784125417E-1,4.755338396E-1,8.543942741E-1,-8.498641437E-1,1.295527333E0
1.883475417E-1,6.402397815E-1,8.659089035E-1,2.334927696E-1,1.101918364E0
1.982835417E-1,8.855294549E-1,6.136196744E-1,1.088952114E0,1.531831657E0
2.082185417E-1,5.911620540E-1,2.727872282E-1,1.532746426E0,1.665291882E0
2.181535416E-1,5.058000511E-2,-4.115591973E-2,1.661629584E0,1.662908603E0
2.280895417E-1,-1.282052099E-1,-8.038752079E-2,1.515588942E0,1.523124607E0
2.380245417E-1,1.463281340E-1,8.736354142E-2,1.267774002E0,1.279177560E0
2.479605417E-1,5.982629127E-1,2.591395345E-1,1.056768454E0,1.241705028E0
2.578955417E-1,7.595144293E-1,2.356369436E-1,8.078074604E-1,1.133551865E0
2.678315417E-1,8.572580941E-1,1.733427545E-1,8.283048749E-1,1.204586284E0
2.777665417E-1,9.676650739E-1,6.063796520E-2,1.076581160E0,1.448820089E0
2.877025417E-1,5.888352276E-1,-1.117917466E-1,1.546060537E0,1.658169926E0
2.976375417E-1,-2.773438720E-1,-3.778362581E-1,2.082673550E0,2.134762043E0
3.075735416E-1,-8.698068036E-1,-7.545185682E-1,2.479569685E0,2.733885142E0
3.175085417E-1,-1.112981758E0,-8.641994700E-1,2.929226416E0,3.250528651E0
3.274435417E-1,-1.189564277E0,-5.019284999E-1,3.446393344E0,3.680301954E0
3.373795417E-1,-9.096140631E-1,-2.290120482E-2,4.382636066E0,4.476094402E0
3.473145417E-1,-4.375911476E-1,2.561671025E-1,5.492541093E0,5.515896595E0
3.572505417E-1,5.079984214E-2,4.858650291E-1,6.158684551E0,6.178028881E0
3.671855417E-1,3.343447412E-1,6.801200581E-1,6.610297760E0,6.653599491E0
3.771215416E-1,5.161802841E-1,6.953166792E-1,6.903069602E0,6.957174520E0
3.870565417E-1,8.276290829E-1,4.885415921E-1,6.850195570E0,6.917284303E0
3.969925416E-1,1.059620580E0,3.240526915E-2,6.733904976E0,6.816841064E0
4.069275417E-1,1.151829344E0,-5.993284947E-1,6.976232888E0,7.096036273E0
4.168625417E-1,1.268057007E0,-1.289301696E0,7.722874964E0,7.931775662E0
4.267985417E-1,1.191517247E0,-2.131455701E0,9.151064989E0,9.471262175E0
4.367335417E-1,6.007580658E-1,-3.256817257E0,1.061649944E1,1.112105342E1
4.466695416E-1,-1.531363852E-2,-4.501526332E0,1.144723909E1,1.230053888E1
4.566045417E-1,-6.367259704E-1,-5.802235946E0,1.146200682E1,1.286269654E1
4.665405416E-1,-1.063411476E0,-7.056390029E0,1.079324556E1,1.293899664E1
4.764755417E-1,-1.111036536E0,-8.026996252E0,1.012746405E1,1.297045100E1
4.864115417E-1,-1.153640153E0,-8.655933293E0,8.735961210E0,1.235204781E1
4.963465417E-1,-1.162840601E0,-9.024165791E0,6.378825788E0,1.111202884E1
5.062815417E-1,-1.249246222E0,-9.211363816E0,4.047357305E0,1.013858672E1
5.162175416E-1,-1.166598533E0,-9.162628443E0,2.198372991E0,9.494606676E0
5.261525417E-1,-7.780865749E-1,-8.945528342E0,8.988053387E-1,9.024175701E0
5.360885416E-1,-6.441169240E-1,-8.618216413E0,-3.475482658E-1,8.649238726E0
5.460235417E-1,-6.948867626E-1,-8.307324634E0,-1.636899955E0,8.495525390E0
5.559595417E-1,-9.098594268E-1,-8.006502931E0,-2.326369711E0,8.387128793E0
5.658945417E-1,-1.006555928E0,-8.124148325E0,-2.195113022E0,8.475462348E0
5.758305417E-1,-9.407463934E-1,-8.207633700E0,-2.030542261E0,8.507253176E0
5.857655416E-1,-6.762429155E-1,-8.067126862E0,-2.024687590E0,8.344770826E0
5.957005417E-1,-2.801417830E-1,-7.570084296E0,-2.183923352E0,7.883792036E0
6.056365416E-1,-6.214201525E-3,-7.024978201E0,-2.865618650E0,7.586970910E0
6.155715417E-1,-3.743445933E-2,-6.615029912E0,-3.769835587E0,7.613913739E0
6.255075417E-1,-1.813185029E-1,-6.644986952E0,-4.388366922E0,7.965330642E0
6.354425417E-1,-4.560860369E-1,-6.781275609E0,-4.555570393E0,8.182110666E0
6.453785417E-1,-9.157238187E-1,-6.801663095E0,-4.619337788E0,8.272814066E0
6.553135416E-1,-1.065503171E0,-6.893090159E0,-4.316933827E0,8.202798707E0
6.652485417E-1,-1.059122397E0,-6.708186582E0,-3.783280674E0,7.773977112E0
6.751845416E-1,-7.523147526E-1,-6.138683565E0,-3.613545359E0,7.162899096E0
6.851195417E-1,-2.719314882E-1,-5.551292746E0,-3.958166217E0,6.823333327E0
6.950555417E-1,1.933589432E-1,-4.882551954E0,-4.520234499E0,6.656517197E0
7.049905416E-1,6.870943245E-1,-4.177418677E0,-5.460766153E0,6.909623173E0
7.149265417E-1,1.412300801E0,-3.665470389E0,-6.604376285E0,7.684273084E0
7.248615416E-1,2.098719772E0,-2.940682865E0,-7.570376072E0,8.388255734E0
7.347975417E-1,2.491693009E0,-2.001696630E0,-8.653440624E0,9.224822930E0
7.447325416E-1,2.809612264E0,-1.290813201E0,-9.592315178E0,1.007832477E1
7.546685417E-1,3.175477810E0,-7.392131889E-1,-9.943893052E0,1.046475535E1
7.646035417E-1,3.721895727E0,-8.615053654E-2,-1.009330462E1,1.075800761E1
7.745385416E-1,4.488125684E0,3.885749620E-1,-1.035537214E1,1.129282936E1
7.844745417E-1,4.981968069E0,2.012787044E-1,-1.042883305E1,1.155945837E1
7.944095416E-1,4.692929382E0,-5.430964065E-1,-9.844054184E0,1.091897169E1
8.043455417E-1,4.030727532E0,-9.074750054E-1,-8.823161906E0,9.742610602E0
8.142805416E-1,3.796168522E0,-9.594193304E-1,-7.773164527E0,8.703646803E0
8.242165417E-1,4.096953096E0,-9.256376266E-1,-7.076975151E0,8.229544761E0
8.341527916E-1,4.468274971E0,-1.038754352E0,-6.666923951E0,8.092735433E0
8.440877917E-1,4.398852734E0,-1.130445126E0,-6.412233855E0,7.857770331E0
8.540237916E-1,4.341127559E0,-1.033386608E0,-6.248264480E0,7.678156379E0
8.639587917E-1,4.269725455E0,-1.097765622E0,-5.537646514E0,7.078218260E0
8.738947917E-1,3.936836451E0,-1.348833953E0,-3.749883717E0,5.601755276E0
8.838297917E-1,3.389276865E0,-1.423053246E0,-1.031172268E0,3.817799687E0
8.937657917E-1,3.165737518E0,-1.135164413E0,1.222063394E0,3.578258126E0
9.037007916E-1,3.551226612E0,-4.824256968E-1,1.888113881E0,4.050792396E0
9.136367917E-1,3.928714961E0,-3.990373850E-2,1.025744298E0,4.060608934E0
9.235717916E-1,3.859725417E0,-3.040125293E-1,-8.302215922E-1,3.959693398E0
9.335067917E-1,2.971992366E0,-5.951635230E-1,-9.804494262E-2,3.032584880E0
9.434427917E-1,1.882511810E0,-1.111235268E0,3.719289331E0,4.314140432E0
9.533777917E-1,1.207044016E0,-1.952516284E0,7.164917275E0,7.523650354E0
9.633137917E-1,8.297519877E-1,-2.361303901E0,8.850988221E0,9.198056151E0
9.732487916E-1,-2.164963755E-1,-2.177254310E0,1.004809394E1,1.028355478E1
9.831847917E-1,-1.466641022E0,-2.060914891E0,1.108268157E1,1.136768388E1
9.931197916E-1,-2.561007658E0,-2.405802235E0,1.146169809E1,1.198820953E1
1.003055792E0,-3.230584601E0,-2.635541239E0,1.108380073E1,1.184201812E1
1.012990792E0,-3.423511728E0,-2.450767031E0,1.002488518E1,1.087313268E1
1.022925792E0,-3.389613080E0,-1.614121834E0,8.664771944E0,9.443153020E0
1.032861792E0,-3.135090214E0,-5.602109143E-1,8.118968861E0,8.721254628E0
1.042796792E0,-2.867870997E0,-1.935017614E-1,9.795024696E0,1.020806719E1
1.052732792E0,-2.473457590E0,-7.411939332E-1,1.264577095E1,1.290669919E1
1.062667792E0,-2.134689504E0,-1.581831609E0,1.436854312E1,1.461212243E1
1.072603792E0,-1.948783714E0,-2.433402701E0,1.446318147E1,1.479536498E1
1.082538792E0,-1.537830288E0,-3.243590856E0,1.342799275E1,1.389952492E1
1.092474792E0,-9.325867501E-1,-4.007339838E0,1.238747605E1,1.305289445E1
1.102409792E0,-6.955602157E-1,-5.154133487E0,1.182367348E1,1.291697142E1
1.112345792E0,-5.875023914E-1,-6.001233067E0,1.163328814E1,1.310318092E1
1.122280792E0,8.195508622E-2,-6.517818782E0,1.187654401E1,1.354772955E1
1.132215792E0,9.442860053E-1,-7.524413449E0,1.188637318E1,1.409944471E1
1.142151792E0,1.648733989E0,-8.621458109E0,1.112164040E1,1.416823027E1
1.152086792E0,2.076275527E0,-9.453520989E0,9.867478130E0,1.382197901E1
1.162022792E0,2.229939623E0,-1.015568739E1,8.493502319E0,1.342572898E1
1.171957792E0,2.319623778E0,-1.091479748E1,7.630638061E0,1.351813951E1
1.181893792E0,2.358062059E0,-1.191270085E1,7.196695722E0,1.411613713E1
1.191828792E0,2.324590403E0,-1.290905704E1,6.588328017E0,1.467833575E1
1.201764792E0,2.131181174E0,-1.374386285E1,5.434958882E0,1.493232993E1
1.211699792E0,1.857287214E0,-1.419143914E1,3.849322051E0,1.482105735E1
1.221634792E0,1.975411057E0,-1.411421730E1,2.136718780E0,1.441107026E1
1.231570792E0,2.164571114E0,-1.381511000E1,6.380575275E-1,1.399820524E1
1.241505792E0,1.971387149E0,-1.366052365E1,-6.319264296E-1,1.381649756E1
1.251441792E0,1.782968372E0,-1.323091001E1,-1.705853538E0,1.345904500E1
1.261376792E0,1.537465422E0,-1.248378203E1,-2.604339327E0,1.284488992E1
1.271312792E0,1.446156910E0,-1.173956479E1,-2.807487971E0,1.215692149E1
1.281247792E0,1.359903024E0,-1.132945278E1,-2.248835047E0,1.163026636E1
1.291183792E0,1.310748990E0,-1.129875256E1,-1.627187730E0,1.149032690E1
1.301118792E0,1.680166135E0,-1.139127773E1,-1.842158275E0,1.166094823E1
1.311054792E0,2.141330186E0,-1.076307510E1,-2.643823235E0,1.128799725E1
1.320989792E0,2.482173742E0,-9.429233994E0,-3.467569621E0,1.034870423E1
1.330924792E0,2.597367399E0,-8.421692664E0,-4.268979642E0,9.792620279E0
1.340860792E0,2.329516390E0,-7.859653033E0,-5.585180869E0,9.919427290E0
1.350795792E0,1.993962518E0,-7.413721563E0,-6.828770202E0,1.027478741E1
1.360731792E0,1.511481126E0,-7.177572404E0,-7.416485542E0,1.043102960E1
1.370666792E0,1.045228901E0,-6.806964766E0,-7.515816872E0,1.019385972E1
1.380602792E0,7.322488627E-1,-6.112802619E0,-7.646450686E0,9.816860616E0
1.390537792E0,2.873799782E-1,-5.134924799E0,-7.951759543E0,9.469979925E0
1.400473792E0,9.526159488E-1,-4.836170086E0,-8.089066200E0,9.472539799E0
1.410408792E0,1.816610620E0,-5.146052635E0,-7.439721208E0,9.226666977E0
1.420343792E0,2.206459398E0,-4.921907809E0,-6.462859633E0,8.417968531E0
1.430279792E0,2.499585873E0,-4.114078714E0,-5.928691340E0,7.636946655E0
1.440214792E0,2.796801307E0,-3.445324473E0,-6.255453047E0,7.669618706E0
1.450150792E0,2.890409382E0,-3.069101754E0,-6.873200855E0,8.063171955E0
1.460085792E0,2.752605127E0,-2.821990820E0,-7.368077613E0,8.356376899E0
1.470021792E0,2.413790848E0,-2.483572689E0,-7.896087034E0,8.622221871E0
1.479956792E0,1.943442282E0,-2.243080217E0,-8.350886391E0,8.862600086E0
1.489892792E0,1.489348100E0,-2.279473872E0,-8.430575169E0,8.859388048E0
1.499827792E0,1.102300138E0,-2.268420880E0,-8.241767406E0,8.619021340E0
1.509762792E0,7.769747999E-1,-2.086329814E0,-8.035199311E0,8.337918799E0
1.519698792E0,7.740447602E-1,-1.762764196E0,-7.865901368E0,8.098079231E0
1.529633792E0,1.179009468E0,-1.507927335E0,-7.570400630E0,7.808640975E0
1.539569792E0,1.389770456E0,-1.509677991E0,-7.032804115E0,7.326044176E0
1.549504792E0,1.097605993E0,-1.570098440E0,-6.501760574E0,6.778114678E0
1.559440792E0,4.908611825E-1,-1.422589561E0,-6.075762262E0,6.259360417E0
1.569375792E0,2.233814719E-1,-1.340870630E0,-5.765047655E0,5.923141716E0
1.579311792E0,4.185185534E-1,-1.284107614E0,-5.511552145E0,5.674618682E0
1.589246792E0,9.748349297E-1,-1.233132758E0,-4.978468511E0,5.220734455E0
1.599181792E0,1.748456790E0,-1.429898581E0,-3.994696989E0,4.589042943E0
1.609117792E0,2.488713561E0,-1.748468338E0,-2.747889933E0,4.098992047E0
1.619052792E0,2.870427692E0,-1.993950824E0,-1.500975580E0,3.803698557E0
1.628988792E0,2.723087213E0,-1.616771500E0,3.735090262E-1,3.188834120E0
1.638923792E0,2.920507632E0,-1.236658044E0,1.730843661E0,3.613102230E0
1.648859792E0,3.453062094E0,-9.822644019E-1,2.430288767E0,4.335295223E0
1.658794792E0,4.317411545E0,-6.516318387E-1,2.707655534E0,5.137710092E0
1.668730792E0,4.756977151E0,-5.629792786E-1,2.811419638E0,5.554264818E0
1.678665792E0,4.527932358E0,-7.500609434E-1,2.922450662E0,5.441091870E0
1.688600792E0,4.218488351E0,-1.247674783E0,2.374913296E0,4.999254893E0
1.698536792E0,3.007253416E0,-2.098213403E0,1.693281732E0,4.038969623E0
1.708471792E0,1.004939027E0,-3.207833962E0,2.078212125E0,3.952096509E0
1.718407792E0,-6.485490404E-1,-3.401486436E0,3.166799372E0,4.692477394E0
1.728342792E0,-1.665328533E0,-2.926331167E0,4.453504905E0,5.583049270E0
1.738278792E0,-1.745746313E0,-2.297809279E0,6.103735927E0,6.751529452E0
1.748213792E0,-1.334094145E0,-2.022885770E0,8.142582842E0,8.495500536E0
1.758149792E0,-1.363238276E0,-2.323445519E0,1.025022517E1,1.059829863E1
1.768084792E0,-2.126844294E0,-2.977647209E0,1.199638620E1,1.254205451E1
1.778019792E0,-3.172247223E0,-3.154441282E0,1.335552938E1,1.408487903E1
1.787955792E0,-3.570147032E0,-2.797724290E0,1.382415331E1,1.454924141E1
1.797890792E0,-3.442783273E0,-2.352066177E0,1.348258236E1,1.411258300E1
1.807826792E0,-3.387294366E0,-2.132076675E0,1.289445888E1,1.350135489E1
1.817761792E0,-3.180796145E0,-2.407458167E0,1.225817891E1,1.289093748E1
1.827697792E0,-2.563466704E0,-2.731186192E0,1.191399893E1,1.248895953E1
1.837631667E0,-2.009236761E0,-3.272852077E0,1.184964564E1,1.245643187E1
1.847567667E0,-1.604075733E0,-3.925629970E0,1.170020835E1,1.244501929E1
1.857502667E0,-1.100479023E0,-4.302269303E0,1.130836889E1,1.214906508E1
1.867437667E0,-3.904065292E-1,-4.599959823E0,1.075572398E1,1.170459935E1
1.877373667E0,4.908326773E-1,-4.889988443E0,1.041902142E1,1.151993538E1
1.887308667E0,1.264569289E0,-5.372646275E0,1.027688964E1,1.166528715E1
1.897244667E0,1.868893791E0,-6.172910242E0,1.014726974E1,1.202350481E1
1.907179667E0,2.375928957E0,-6.920516524E0,9.941971657E0,1.234428563E1
1.917115667E0,2.893474200E0,-7.672931557E0,9.605596544E0,1.262986764E1
1.927050667E0,3.073902903E0,-8.557580786E0,8.901858412E0,1.272494209E1
1.936986667E0,2.859202500E0,-9.572210696E0,7.781870447E0,1.266332358E1
1.946921667E0,2.433180361E0,-1.052854094E1,6.510288153E0,1.261564080E1
1.956857667E0,2.013061425E0,-1.130516813E1,5.018024340E0,1.253155261E1
1.966792667E0,1.902244409E0,-1.176960545E1,3.296771282E0,1.236975534E1
1.976727667E0,1.896499666E0,-1.187391276E1,1.956721601E0,1.218258079E1
1.986663667E0,1.573864924E0,-1.223871119E1,1.254025444E0,1.240305132E1
1.996598667E0,1.394527896E0,-1.254478369E1,7.763336527E-1,1.264590842E1
2.006534667E0,1.532399394E0,-1.257270882E1,-4.955690682E-2,1.266584821E1
2.016469667E0,1.766699226E0,-1.246985630E1,-1.196949018E0,1.265113549E1
2.026405667E0,2.051255730E0,-1.222327220E1,-1.885241729E0,1.253675276E1
2.036340667E0,2.215793308E0,-1.203280734E1,-2.014099598E0,1.239978990E1
2.046276667E0,2.304578893E0,-1.175854953E1,-2.015063365E0,1.215051651E1
2.056211667E0,2.410081520E0,-1.134697338E1,-2.069520823E0,1.178325992E1
2.066146667E0,2.396243207E0,-1.096730197E1,-2.149607213E0,1.142998273E1
2.076082667E0,2.243054489E0,-1.066680303E1,-2.285049777E0,1.113702981E1
2.086017667E0,2.078183473E0,-1.018991933E1,-2.703215743E0,1.074526304E1
2.095953667E0,1.946347033E0,-9.637437556E0,-3.262835212E0,1.035927425E1
2.105888667E0,1.788240222E0,-9.147886443E0,-3.615871674E0,9.997807631E0
2.115824667E0,1.600519164E0,-8.658363395E0,-3.917768681E0,9.637314445E0
2.125759667E0,1.402059987E0,-8.156451852E0,-4.309003834E0,9.330648052E0
2.135695667E0,1.172728462E0,-7.948910195E0,-4.556903850E0,9.237198603E0
2.145630667E0,1.082278248E0,-7.673290576E0,-4.617864582E0,9.020830769E0
2.155565667E0,1.114165162E0,-6.933805491E0,-4.794298467E0,8.503194717E0
2.165501667E0,1.065258904E0,-6.282968874E0,-5.211112264E0,8.232020738E0
2.175436667E0,1.132596755E0,-5.641405356E0,-5.693550240E0,8.094735582E0
2.185372667E0,1.171858031E0,-4.950812935E0,-6.080140657E0,7.927919675E0
2.195307667E0,1.371244576E0,-4.486632890E0,-6.243608927E0,7.809791214E0
2.205243667E0,1.787164042E0,-3.997796305E0,-6.217446145E0,7.604798957E0
2.215178667E0,2.219829057E0,-3.281474381E0,-6.393599364E0,7.521557550E0
2.225114667E0,2.438300622E0,-2.495577022E0,-6.903413419E0,7.735006879E0
2.235049667E0,2.537955595E0,-2.143634282E0,-7.612419891E0,8.305740373E0
2.244984667E0,2.701429127E0,-1.863160889E0,-7.934688013E0,8.586522095E0
2.254920667E0,2.957002444E0,-1.486614819E0,-7.896198131E0,8.561765705E0
2.264855667E0,3.132371551E0,-1.174466473E0,-7.770440894E0,8.459957135E0
2.274791667E0,3.294138281E0,-9.582761997E-1,-7.538560202E0,8.282483336E0
2.284726667E0,3.424297301E0,-1.012451237E0,-7.111529857E0,7.957683483E0
2.294662667E0,3.344807328E0,-1.176449849E0,-6.669550520E0,7.553454471E0
2.304597667E0,3.139570936E0,-1.120196711E0,-6.476076679E0,7.283633399E0
2.314533667E0,2.823542086E0,-8.951572609E-1,-6.501196318E0,7.144175949E0
2.324468667E0,2.603116674E0,-7.473022270E-1,-6.639294688E0,7.170419164E0
2.334403667E0,2.433513506E0,-8.605130929E-1,-6.560189461E0,7.049720316E0
2.344339667E0,2.352953200E0,-1.139788976E0,-6.083181210E0,6.621223550E0
2.354274667E0,2.341332444E0,-1.377651370E0,-5.530753816E0,6.161898951E0
2.364210667E0,2.533554396E0,-1.300779780E0,-4.898007607E0,5.665810130E0
2.374145667E0,2.895690587E0,-9.655109596E-1,-4.238811810E0,5.223481689E0
2.384081667E0,3.367045751E0,-6.510494560E-1,-3.651438825E0,5.009378003E0
2.394016667E0,3.580056309E0,-4.953363490E-1,-2.810315099E0,4.578212777E0
2.403952667E0,3.748623350E0,-9.037339568E-1,-1.817473377E0,4.262877146E0
2.413887667E0,3.742367999E0,-1.564799693E0,-1.437199999E0,4.303424236E0
2.423822667E0,2.962565485E0,-2.141131673E0,-1.784256806E0,4.067531370E0
2.433758667E0,1.532525109E0,-2.516160976E0,-2.444876985E0,3.828462190E0
2.443693667E0,7.304208769E-1,-2.348746421E0,-2.819781157E0,3.741829790E0
2.453629667E0,8.471387565E-1,-2.023217307E0,-1.722043601E0,2.788635242E0
2.463564667E0,1.207590073E0,-1.833685074E0,1.148107225E0,2.477665219E0
2.473500667E0,1.577681402E0,-1.818191707E0,4.039823168E0,4.702666363E0
2.483435667E0,1.535664918E0,-2.077059054E0,5.676445380E0,6.236543370E0
2.493371667E0,1.100850028E0,-2.090238093E0,6.091426953E0,6.533486695E0
2.503306667E0,7.426194844E-1,-1.741029510E0,5.273114970E0,5.602535938E0
2.513242667E0,3.912773989E-1,-1.182955754E0,3.977508806E0,4.168100121E0
2.523177667E0,2.024310444E-1,-5.280588296E-1,3.129925076E0,3.180606143E0
2.533112667E0,5.269956596E-1,-6.780226618E-2,3.105428166E0,3.150556406E0
2.543048667E0,6.799659108E-1,2.531639725E-1,4.080336771E0,4.144344798E0
2.552983667E0,1.821306811E-1,-1.894541726E-2,5.926410926E0,5.929239157E0
2.562919667E0,-6.321681388E-1,-7.320931806E-1,8.039149690E0,8.097130647E0
2.572854667E0,-1.456215144E0,-1.156961664E0,1.001592256E1,1.018714031E1
2.582790667E0,-2.534725301E0,-1.289315583E0,1.168245855E1,1.202360199E1
2.592725667E0,-3.291037210E0,-1.228208525E0,1.280066136E1,1.327389744E1
2.602661667E0,-3.407538596E0,-1.299018014E0,1.332308318E1,1.381315722E1
2.612596667E0,-3.356949071E0,-1.753459522E0,1.303625503E1,1.357525958E1
2.622531667E0,-3.226091601E0,-1.690244104E0,1.287091682E1,1.337628842E1
2.632467667E0,-2.696196746E0,-2.061642431E0,1.273155779E1,1.317620622E1
2.642402667E0,-1.950933150E0,-2.595041669E0,1.247994743E1,1.289532742E1
2.652338667E0,-1.345588455E0,-3.056967613E0,1.188922077E1,1.234946273E1
2.662273667E0,-7.310050137E-1,-3.329623571E0,1.107358915E1,1.158642042E1
2.672209667E0,1.002613297E-1,-3.482754255E0,1.057277396E1,1.113207881E1
2.682144667E0,8.842457718E-1,-3.871155262E0,1.043105032E1,1.116129671E1
2.692080667E0,1.354226255E0,-4.693563513E0,1.043976618E1,1.152615222E1
2.702015667E0,1.655474513E0,-5.564001085E0,1.024504688E1,1.177538490E1
2.711950667E0,1.845217830E0,-6.177541822E0,9.780081552E0,1.171395949E1
2.721886667E0,1.930328147E0,-6.930520526E0,9.138029791E0,1.163021367E1
2.731821667E0,2.095877148E0,-7.788172576E0,8.453488653E0,1.168374099E1
2.741757667E0,2.323080360E0,-8.487314211E0,7.804292180E0,1.176172527E1
2.751692667E0,2.437671753E0,-9.391988985E0,6.960122055E0,1.194131482E1
2.761628667E0,2.372770145E0,-1.039203886E1,6.098215570E0,1.228058399E1
2.771563667E0,2.128616001E0,-1.129814679E1,5.254797397E0,1.264088694E1
2.781499667E0,1.817601138E0,-1.201327062E1,4.137335429E0,1.283510379E1
2.791434667E0,1.432252962E0,-1.257668025E1,2.556569914E0,1.291356978E1
2.801369667E0,1.132660928E0,-1.254360138E1,1.006911001E0,1.263482197E1
2.811305667E0,8.697052082E-1,-1.234283607E1,6.950526774E-2,1.237363408E1
2.821240667E0,6.108299679E-1,-1.247982463E1,-4.521172392E-1,1.250294150E1
2.831176667E0,6.118384664E-1,-1.251569847E1,-1.132063050E0,1.258167800E1
2.841112083E0,8.935772701E-1,-1.218831521E1,-2.005949310E0,1.238456057E1
2.851048083E0,1.339652655E0,-1.162912492E1,-2.463375821E0,1.196241765E1
2.860983083E0,1.725171715E0,-1.107743779E1,-2.449264151E0,1.147539717E1
2.870919083E0,2.101535206E0,-1.074335361E1,-2.305850077E0,1.118718202E1
2.880854083E0,2.204879773E0,-1.071294692E1,-2.187398937E0,1.115407731E1
2.890790083E0,2.085047374E0,-1.047314091E1,-2.289246908E0,1.092129821E1
2.900725083E0,1.860528180E0,-9.868694351E0,-2.588179961E0,1.037069760E1
2.910660083E0,1.673241424E0,-9.270624177E0,-2.836331116E0,9.838139239E0
2.920596083E0,1.501552847E0,-8.632270195E0,-3.015333098E0,9.266228109E0
2.930531083E0,1.178579917E0,-8.099684159E0,-3.218645172E0,8.795090155E0
2.940467083E0,7.040175553E-1,-7.838528212E0,-3.488933885E0,8.608764424E0
2.950402083E0,3.945603912E-1,-7.398930447E0,-3.729502370E0,8.295121312E0
2.960338083E0,2.471021640E-1,-6.932155407E0,-3.635884062E0,7.831697835E0
2.970273083E0,2.272291591E-1,-6.560763658E0,-3.422766500E0,7.403417007E0
2.980209083E0,6.030514900E-1,-5.962043858E0,-3.224913387E0,6.805123395E0
2.990144083E0,1.126814151E0,-5.282783341E0,-2.872420423E0,6.117868015E0
3.000079083E0,1.516355073E0,-4.622081886E0,-2.724389388E0,5.575416685E0
3.010015083E0,1.966156669E0,-3.946455998E0,-2.976258202E0,5.319624035E0
3.019950083E0,2.478697280E0,-3.074701633E0,-3.807813252E0,5.486088962E0
3.029886083E0,2.801001654E0,-2.370747154E0,-5.138117963E0,6.313977236E0
3.039821083E0,2.976638856E0,-1.974481350E0,-6.150404894E0,7.112414206E0
3.049757083E0,3.019447784E0,-1.773190366E0,-6.393170178E0,7.289299961E0
3.059692083E0,2.924039643E0,-1.461741933E0,-6.315662996E0,7.111560756E0
3.069628083E0,2.856599027E0,-1.165599171E0,-6.696253585E0,7.372827917E0
3.079563083E0,3.156037572E0,-7.088287175E-1,-7.518083253E0,8.184411225E0
3.089498083E0,3.502190984E0,-4.282038814E-1,-8.187363158E0,8.915246252E0
3.099434083E0,3.546290100E0,-3.635851318E-1,-8.442988808E0,9.164738274E0
3.109369083E0,3.368730626E0,-3.950004673E-1,-8.513473485E0,9.164256771E0
3.119305083E0,3.110729837E0,-6.084554136E-1,-8.264383267E0,8.851377796E0
3.129240083E0,2.749173397E0,-1.021169436E0,-7.632658274E0,8.176687209E0
3.139176083E0,2.392602585E0,-1.330794123E0,-6.907150959E0,7.429959252E0
3.149111083E0,2.066621481E0,-1.352094945E0,-6.390229028E0,6.850847548E0
3.159047083E0,1.894597566E0,-1.131471312E0,-6.115940820E0,6.501881219E0
3.168982083E0,1.876197256E0,-8.024286067E-1,-6.034030100E0,6.369735242E0
3.178918083E0,1.980617418E0,-7.093000031E-1,-6.179383695E0,6.527689844E0
3.188853083E0,2.032927194E0,-9.536522216E-1,-6.248615897E0,6.639837812E0
3.198788083E0,1.780876823E0,-1.287288499E0,-6.109326450E0,6.492495946E0
3.208724083E0,1.379859717E0,-1.554140804E0,-5.809197056E0,6.169776083E0
3.218659083E0,1.104490359E0,-1.560205536E0,-5.249873457E0,5.587066456E0
3.228595083E0,1.062122019E0,-1.262284051E0,-4.017008794E0,4.342559598E0
3.238530083E0,1.566718749E0,-9.731971246E-1,-2.537487525E0,3.136967202E0
3.248466083E0,2.385815137E0,-9.362374592E-1,-1.030425578E0,2.762323536E0
3.258401083E0,2.910498076E0,-1.204293121E0,7.662431127E-1,3.241673870E0
3.268337083E0,2.750993050E0,-1.842301531E0,2.218582138E0,3.985491738E0
3.278272083E0,1.752433774E0,-2.498450344E0,2.403310883E0,3.884479560E0
3.288207083E0,4.869757077E-1,-2.632866138E0,9.840489721E-1,2.852627178E0
3.298143083E0,2.665329002E-2,-2.157151875E0,-9.162522608E-1,2.343828666E0
3.308078083E0,5.115807912E-1,-1.267575197E0,-1.517399240E0,2.042293377E0
3.318014083E0,1.870456460E0,-6.771783239E-1,-6.693471479E-1,2.098857654E0
3.327949083E0,3.337764941E0,-8.312349147E-1,4.202621931E-1,3.465291705E0
3.337885083E0,3.818768011E0,-1.326411050E0,1.632727382E0,4.359834182E0
3.347820083E0,3.411034062E0,-1.973463934E0,3.308668027E0,5.145580374E0
3.357756083E0,2.176698824E0,-2.870522125E0,4.949069880E0,6.121373025E0
3.367691083E0,4.626417523E-1,-3.811949865E0,6.594774572E0,7.631254866E0
3.377626083E0,-1.502682675E0,-4.054570431E0,8.693303432E0,9.709331654E0
3.387562083E0,-3.035983710E0,-3.386835945E0,1.091963079E1,1.182904017E1
3.397497083E0,-4.142528926E0,-2.455336777E0,1.294716568E1,1.381370058E1
3.407433083E0,-4.781077035E0,-1.840216853E0,1.418885818E1,1.508538339E1
3.417368083E0,-4.850904484E0,-1.597323368E0,1.437553873E1,1.525578021E1
3.427304083E0,-4.849575997E0,-1.570322096E0,1.375560523E1,1.466972986E1
3.437239083E0,-4.557047984E0,-1.691291925E0,1.327810640E1,1.413984668E1
3.447175083E0,-3.914053945E0,-2.253597019E0,1.348120008E1,1.421763951E1
3.457110083E0,-3.267999765E0,-2.900578567E0,1.387844353E1,1.455006438E1
3.467045083E0,-2.409612281E0,-3.460964606E0,1.373206668E1,1.436503263E1
3.476981083E0,-1.360610537E0,-4.034296964E0,1.273815930E1,1.343084195E1
3.486916083E0,-6.417495326E-1,-4.419813248E0,1.119070888E1,1.204900647E1
3.496852083E0,-1.418703721E-1,-4.568493616E0,9.698881268E0,1.072191956E1
3.506787083E0,2.482483645E-1,-4.806577035E0,8.682021815E0,9.926848081E0
3.516723083E0,6.807302150E-1,-5.061046983E0,8.242197762E0,9.695948336E0
3.526658083E0,1.230954377E0,-5.329419563E0,8.160579987E0,9.824104401E0
3.536594083E0,1.664266971E0,-5.804523962E0,8.076362540E0,1.008414175E1
3.546529083E0,2.059868240E0,-6.512029454E0,7.948562286E0,1.047994405E1
3.556465083E0,2.351993380E0,-7.455694631E0,7.720934274E0,1.098781513E1
3.566400083E0,2.362934251E0,-8.422194940E0,7.188488570E0,1.132215500E1
3.576335083E0,2.252533265E0,-9.340030627E0,6.381793250E0,1.153418239E1
3.586271083E0,2.152473810E0,-1.025028832E1,5.283800172E0,1.173115930E1
3.596206083E0,1.967100848E0,-1.086829926E1,4.132992702E0,1.179283864E1
3.606142083E0,1.565878943E0,-1.136052372E1,2.964969860E0,1.184502099E1
3.616077083E0,1.138755262E0,-1.188334549E1,1.746874972E0,1.206491756E1
3.626013083E0,7.118477811E-1,-1.232322567E1,7.486853859E-1,1.236645253E1
3.635948083E0,4.122964581E-1,-1.248787274E1,2.496527195E-2,1.249470197E1
3.645884083E0,2.928109451E-1,-1.255614015E1,-5.791430292E-1,1.257289944E1
3.655819083E0,3.455559732E-1,-1.260378561E1,-1.046281473E0,1.265185858E1
3.665754083E0,7.283245039E-1,-1.249268032E1,-1.249502184E0,1.257611919E1
3.675690083E0,1.352590350E0,-1.229446322E1,-1.123823885E0,1.241959366E1
3.685625083E0,1.974589962E0,-1.204153372E1,-8.599640393E-1,1.223262351E1
3.695561083E0,2.305565903E0,-1.165104496E1,-6.993737698E-1,1.189754624E1
3.705496083E0,2.264435418E0,-1.097996119E1,-9.886870567E-1,1.125454209E1
3.715432083E0,2.261553472E0,-1.006925502E1,-1.763093248E0,1.046962361E1
3.725367083E0,2.130572333E0,-9.229887210E0,-2.638593193E0,9.833225840E0
3.735303083E0,2.183698088E0,-8.851440210E0,-3.073693573E0,9.621025066E0
3.745238083E0,2.026937160E0,-8.549146762E0,-3.018964511E0,9.290346137E0
3.755173083E0,1.837085377E0,-7.972804842E0,-3.277508507E0,8.813771142E0
3.765109083E0,1.699194437E0,-7.243988587E0,-4.064166004E0,8.478211940E0
3.775044083E0,1.464826631E0,-6.596677256E0,-4.830690660E0,8.306469776E0
3.784980083E0,1.291171051E0,-6.108609581E0,-5.051092098E0,8.030925543E0
3.794915083E0,1.249953004E0,-5.653896763E0,-4.993370724E0,7.646089347E0
3.804851083E0,1.219649224E0,-4.851191583E0,-5.259290982E0,7.258219178E0
3.814786083E0,1.113807166E0,-4.223423401E0,-5.876299118E0,7.321800527E0
3.824722083E0,1.021124412E0,-3.784685175E0,-6.624259157E0,7.697229782E0
3.834657167E0,1.073764410E0,-3.575164821E0,-7.032419368E0,7.961764608E0
3.844593167E0,1.220416818E0,-3.630091226E0,-6.883642228E0,7.877278073E0
3.854528167E0,1.320450398E0,-3.680940952E0,-7.151380970E0,8.150776977E0
3.864463167E0,1.395508036E0,-3.412688239E0,-7.647336540E0,8.489737325E0
3.874399167E0,1.607672063E0,-3.014044372E0,-7.624006734E0,8.354313354E0
3.884334167E0,1.892475758E0,-2.826387926E0,-7.069206541E0,7.844973825E0
3.894270167E0,2.017733788E0,-2.681044271E0,-6.421453160E0,7.245295626E0
3.904205167E0,2.097985946E0,-2.258409278E0,-6.173859830E0,6.900616110E0
3.914141167E0,2.098653552E0,-1.835962565E0,-6.325333121E0,6.912665503E0
3.924076167E0,1.927488301E0,-1.590333315E0,-6.538686326E0,6.999913575E0
3.934012167E0,1.827757460E0,-1.372564877E0,-6.636228408E0,7.018843149E0
3.943947167E0,1.579592856E0,-1.045820128E0,-6.868882102E0,7.125334705E0
3.953882167E0,1.181359902E0,-6.833255017E-1,-7.167836205E0,7.296603375E0
3.963818167E0,9.439972991E-1,-5.113553810E-1,-7.254833418E0,7.333840955E0
3.973753167E0,9.277778538E-1,-5.949571162E-1,-7.089002874E0,7.174169461E0
3.983689167E0,9.825140780E-1,-8.161584538E-1,-6.654027332E0,6.775509447E0
3.993624167E0,1.200874107E0,-1.165440127E0,-5.789613562E0,6.026605554E0
4.003560167E0,1.260858939E0,-1.617163848E0,-4.856926532E0,5.272069756E0
4.013495167E0,9.093676029E-1,-1.838256428E0,-3.733849190E0,4.260019472E0
4.023431167E0,6.930257401E-1,-2.054013423E0,-2.832744142E0,3.567028902E0
4.033366167E0,9.052321596E-1,-2.172623023E0,-2.317059774E0,3.302802153E0
4.043301167E0,1.609945168E0,-1.881916417E0,-1.626798598E0,2.963107579E0
4.053237167E0,2.048183456E0,-1.599393575E0,-6.104633474E-1,2.669415812E0
4.063172167E0,2.244799299E0,-1.243775859E0,4.198569810E-1,2.600458068E0
4.073108167E0,2.712965683E0,-4.804171783E-1,1.456747241E0,3.116584025E0
4.083043167E0,2.846875692E0,-1.618415737E-1,2.554674246E0,3.828479386E0
4.092979167E0,2.478552854E0,-3.983339649E-1,3.301291180E0,4.147338623E0
4.102914167E0,1.752374863E0,-8.194983834E-1,3.124422262E0,3.674834653E0
4.112850167E0,8.695708685E-1,-1.055194384E0,2.100595851E0,2.506410105E0
4.122785167E0,2.447658359E-1,-9.902762568E-1,6.761117917E-1,1.223799221E0
4.132720167E0,1.331672667E-1,-9.035901153E-1,-2.048074991E-1,9.360313718E-1
4.142656167E0,5.379317071E-1,-8.578403306E-1,1.014766735E-1,1.017623737E0
4.152591167E0,1.612410354E0,-7.108743659E-1,1.333627684E0,2.209925861E0
4.162527167E0,2.791586468E0,-5.130189139E-1,2.656507600E0,3.887566854E0
4.172462167E0,2.361671399E0,-7.506561899E-1,3.705412719E0,4.457696706E0
4.182398167E0,8.609830628E-1,-1.341110658E0,4.722611310E0,4.984267972E0
4.192333167E0,-8.243472601E-1,-1.967386630E0,6.120393475E0,6.481463943E0
4.202269167E0,-2.630079939E0,-2.138051799E0,7.947395182E0,8.640004407E0
4.212204167E0,-3.523526305E0,-1.711002889E0,9.825224980E0,1.057723094E1
4.222139167E0,-3.562772232E0,-1.066807247E0,1.150449971E1,1.209069631E1
4.232075167E0,-3.243180089E0,-2.476263669E-1,1.269519630E1,1.310524875E1
4.242010167E0,-2.744950245E0,1.611920942E-1,1.310407104E1,1.338945154E1
4.251946167E0,-2.482180759E0,-2.477270852E-1,1.265347641E1,1.289701731E1
4.261881167E0,-2.486191072E0,-8.297799812E-1,1.187178437E1,1.215767021E1
4.271817167E0,-2.390751356E0,-1.354451665E0,1.112376528E1,1.145811439E1
4.281752167E0,-1.959713037E0,-2.032244093E0,1.044729973E1,1.082204060E1
4.291688167E0,-1.384800030E0,-2.428966126E0,1.009247080E1,1.047260782E1
4.301623167E0,-8.693359566E-1,-2.591934459E0,1.006375863E1,1.042847578E1
4.311558167E0,-1.836600204E-1,-2.941228411E0,1.023590651E1,1.065168239E1
4.321494167E0,6.485673860E-1,-3.294260780E0,1.044388729E1,1.097030426E1
4.331429167E0,1.243669733E0,-3.569156514E0,1.062856341E1,1.128060073E1
4.341365167E0,1.591398385E0,-4.206841574E0,1.066603120E1,1.157559011E1
4.351300167E0,1.984320167E0,-5.059051913E0,1.062863358E1,1.193731061E1
4.361236167E0,2.363053680E0,-6.195672283E0,1.045726689E1,1.238243953E1
4.371171167E0,2.556790646E0,-7.356358624E0,1.011789099E1,1.276812080E1
4.381107167E0,2.643314235E0,-8.311278521E0,9.461535183E0,1.286798775E1
4.391042167E0,2.796384400E0,-9.166788737E0,8.455726967E0,1.278080983E1
4.400978167E0,2.870300515E0,-1.011642217E1,7.316190006E0,1.281043554E1
4.410913167E0,2.730197428E0,-1.098120899E1,6.097193477E0,1.285366474E1
4.420848167E0,2.637381065E0,-1.166553203E1,4.824617742E0,1.289640852E1
4.430784167E0,2.575107926E0,-1.209858383E1,3.643307687E0,1.289498362E1
4.440719167E0,2.542496543E0,-1.220017687E1,2.770314882E0,1.276648929E1
4.450655167E0,2.614507342E0,-1.232774323E1,2.394353533E0,1.282738596E1
4.460590167E0,2.335809456E0,-1.301672533E1,2.293901584E0,1.342211342E1
4.470526167E0,1.973707178E0,-1.349123156E1,1.845977091E0,1.375923255E1
4.480461167E0,1.718954810E0,-1.356080290E1,9.648519784E-1,1.370332515E1
4.490397167E0,1.569122247E0,-1.318871182E1,-7.001514494E-2,1.328191124E1
4.500332167E0,1.558168951E0,-1.275632777E1,-1.090817303E0,1.289735132E1
4.510267167E0,1.639486325E0,-1.224456776E1,-1.847199159E0,1.249117688E1
4.520203167E0,1.556439344E0,-1.172388139E1,-2.219201943E0,1.203315235E1
4.530138167E0,1.451106286E0,-1.118121183E1,-2.550438523E0,1.155984187E1
4.540074167E0,1.481809284E0,-1.062004870E1,-2.779645869E0,1.107734735E1
4.550009167E0,1.359907994E0,-1.026187166E1,-2.689693765E0,1.069531730E1
4.559945167E0,1.157016774E0,-1.001830004E1,-2.485156407E0,1.038657912E1
4.569880167E0,1.096320921E0,-9.215869095E0,-2.450525688E0,9.598918631E0
4.579816167E0,1.165415568E0,-8.214376125E0,-2.667773138E0,8.714997538E0
4.589751167E0,1.345002272E0,-7.586730734E0,-3.239660942E0,8.358403996E0
4.599687167E0,1.342229230E0,-6.686860033E0,-4.278032302E0,8.050915276E0
4.609622167E0,1.308277372E0,-5.841554963E0,-5.345342116E0,8.025461757E0
4.619557167E0,1.368463640E0,-5.257741470E0,-6.179850887E0,8.228432116E0
4.629493167E0,1.680728930E0,-4.667518845E0,-6.825256611E0,8.437695758E0
4.639428167E0,1.922980097E0,-4.389287274E0,-7.396274056E0,8.812977088E0
4.649364167E0,1.960004667E0,-4.408474327E0,-7.783674313E0,9.157611588E0
4.659299167E0,1.764066225E0,-4.339788254E0,-7.795337754E0,9.094667802E0
4.669235167E0,1.636692233E0,-4.134389017E0,-7.332016080E0,8.574986519E0
4.679170167E0,1.735158614E0,-3.678054181E0,-7.040470984E0,8.130626646E0
4.689106167E0,2.033577112E0,-3.284378693E0,-7.500222348E0,8.436581923E0
4.699041167E0,2.412716129E0,-2.919031211E0,-8.050390377E0,8.896669464E0
4.708976167E0,2.703400515E0,-2.481602762E0,-8.349174911E0,9.120057473E0
4.718912167E0,2.882173287E0,-2.270178553E0,-8.333528931E0,9.105401582E0
4.728847167E0,2.807110240E0,-2.110078281E0,-8.078549398E0,8.808817096E0
4.738783167E0,2.693676888E0,-1.827512169E0,-7.737406465E0,8.394233420E0
4.748718167E0,2.585030066E0,-1.450452129E0,-7.503602039E0,8.067851968E0
4.758654167E0,2.446017923E0,-1.098816952E0,-7.339991097E0,7.814465540E0
4.768589167E0,2.276714425E0,-8.715953207E-1,-7.272421843E0,7.670151657E0
4.778525167E0,2.044111748E0,-6.387685490E-1,-7.324300679E0,7.630976250E0
4.788460167E0,1.740569188E0,-5.906535655E-1,-7.287815223E0,7.516029767E0
4.798395167E0,1.451586488E0,-8.886042863E-1,-6.928192749E0,7.134183603E0
4.808331167E0,1.242512276E0,-1.238093535E0,-6.468469452E0,6.702075007E0
4.818266167E0,1.296995462E0,-1.428273055E0,-6.117745855E0,6.414746721E0
4.828202167E0,1.635834008E0,-1.539057326E0,-5.633315733E0,6.064560702E0
4.838136417E0,2.052984313E0,-1.644102556E0,-4.627505178E0,5.322745718E0
4.848072417E0,2.537417359E0,-1.596058323E0,-3.289914545E0,4.450778217E0
4.858007417E0,3.021335557E0,-1.709748661E0,-2.142661013E0,4.079547187E0
4.867943417E0,3.101481881E0,-2.160103549E0,-1.418381613E0,4.036959697E0
4.877878417E0,2.808830491E0,-2.612279845E0,-1.126519305E0,3.997821965E0
4.887813417E0,2.182879916E0,-2.835535895E0,-1.245027164E0,3.788841667E0
4.897749417E0,1.545386499E0,-2.782020423E0,-1.665553651E0,3.591925114E0
4.907684417E0,1.941770563E0,-2.142390579E0,-1.713166358E0,3.360840562E0
4.917620417E0,2.910955621E0,-1.839031768E0,-8.316892433E-1,3.542231990E0
4.927555417E0,3.565236833E0,-2.157986857E0,1.437421024E-1,4.169949969E0
4.937491417E0,3.562595353E0,-2.391238137E0,7.805600202E-1,4.361121349E0
4.947426417E0,2.960658708E0,-2.743257476E0,2.107234780E0,4.553174715E0
4.957362417E0,2.060932579E0,-3.305691794E0,4.083177348E0,5.643348172E0
4.967297417E0,1.145500098E0,-3.478592207E0,5.697319940E0,6.772904009E0
4.977233417E0,2.012122289E-1,-3.661842484E0,6.392172058E0,7.369493901E0
4.987168417E0,-7.680436166E-1,-3.667252035E0,5.986133217E0,7.062040738E0
4.997103417E0,-1.167851738E0,-3.058260140E0,4.609930787E0,5.654051169E0
5.007039417E0,-1.288407657E0,-2.169086773E0,3.201759290E0,4.076296637E0
5.016974417E0,-1.677559154E0,-1.591671304E0,3.002105527E0,3.789493350E0
5.026910417E0,-2.015089239E0,-1.420571687E0,4.442204576E0,5.080530489E0
5.036845417E0,-2.246489436E0,-1.379678892E0,7.003075701E0,7.482866958E0
5.046781417E0,-2.760438057E0,-1.685743794E0,9.741970569E0,1.026487900E1
5.056716417E0,-3.608349816E0,-1.972312325E0,1.227849798E1,1.294881141E1
5.066652417E0,-4.243001633E0,-2.011169558E0,1.398736664E1,1.475446682E1
5.076587417E0,-3.884293079E0,-2.315527804E0,1.369660682E1,1.442381504E1
5.086522417E0,-3.083504031E0,-2.632645698E0,1.198642371E1,1.265358344E1
5.096458417E0,-2.103052559E0,-2.711569660E0,1.056937205E1,1.111247342E1
5.106393417E0,-1.002934309E0,-3.263449754E0,1.000756104E1,1.057389519E1
5.116329417E0,-7.185401387E-1,-4.006765350E0,9.973864710E0,1.077257842E1
5.126264417E0,-1.259007272E0,-4.077679796E0,9.635344838E0,1.053814224E1
5.136200417E0,-1.885555432E0,-3.764580694E0,8.774023660E0,9.731951411E0
5.146135417E0,-2.173527149E0,-3.666532828E0,8.208207312E0,9.248910775E0
5.156071417E0,-2.103385850E0,-3.915448798E0,8.288479058E0,9.404991038E0
5.166006417E0,-1.656345456E0,-4.445696533E0,8.961380144E0,1.013972544E1
5.175941417E0,-1.143086440E0,-5.418400737E0,9.776334656E0,1.123576577E1
5.185877417E0,-4.971283744E-1,-6.607704520E0,1.038038887E1,1.231508704E1
5.195812417E0,3.319283793E-1,-7.664010460E0,1.038903105E1,1.291430211E1
5.205748417E0,8.890051129E-1,-8.585553281E0,9.490593506E0,1.282861724E1
5.215683417E0,1.240077203E0,-9.539948099E0,7.858019906E0,1.242162944E1
5.225619417E0,1.412835675E0,-1.033210607E1,6.243583784E0,1.215445840E1
5.235554417E0,1.500376241E0,-1.101639753E1,5.443727952E0,1.237926967E1
5.245490417E0,1.467445453E0,-1.182496572E1,4.979277180E0,1.291419419E1
5.255425417E0,1.610129940E0,-1.246095684E1,3.984203283E0,1.318111678E1
5.265360417E0,2.208641433E0,-1.274809489E1,2.663144774E0,1.320925283E1
5.275296417E0,2.335958560E0,-1.310790096E1,1.591303952E0,1.340917665E1
5.285231417E0,2.057487254E0,-1.338018942E1,8.634188667E-1,1.356496277E1
5.295167417E0,1.746194502E0,-1.372953015E1,2.235168350E-1,1.384193459E1
5.305102417E0,1.572329738E0,-1.393679524E1,-6.610151580E-1,1.404077716E1
5.315038417E0,1.554309496E0,-1.397340933E1,-1.312753124E0,1.412074244E1
5.324973417E0,1.519692810E0,-1.384052902E1,-1.338599571E0,1.398790758E1
5.334909417E0,1.343249569E0,-1.374841900E1,-1.111858581E0,1.385855598E1
5.344844417E0,1.524431393E0,-1.316258646E1,-1.061214677E0,1.329299628E1
5.354780417E0,2.023319926E0,-1.199912503E1,-1.261992860E0,1.223378319E1
5.364715417E0,2.241815757E0,-1.048507742E1,-1.694152236E0,1.085507891E1
5.374650417E0,1.998647892E0,-9.427079880E0,-2.167782990E0,9.877434462E0
5.384586417E0,1.700660918E0,-9.436696211E0,-2.530419996E0,9.916980805E0
5.394521417E0,1.768417869E0,-9.199162431E0,-2.748566456E0,9.762505249E0
5.404457417E0,1.703891505E0,-8.279631051E0,-3.077247803E0,8.995831849E0
5.414392417E0,1.486017525E0,-7.469351973E0,-3.680504749E0,8.458462165E0
5.424328417E0,1.386618806E0,-6.801722152E0,-4.250293695E0,8.139479863E0
5.434263417E0,1.541232783E0,-5.552903654E0,-5.131141650E0,7.716135828E0
5.444199417E0,1.301541672E0,-4.659304676E0,-6.219052960E0,7.879070409E0
5.454134417E0,1.156195825E0,-4.093703506E0,-7.265616269E0,8.419286011E0
5.464069417E0,1.225322924E0,-3.599445384E0,-8.254002120E0,9.087682562E0
5.474005417E0,1.804965305E0,-3.265357116E0,-9.241819038E0,9.966527780E0
5.483940417E0,2.444840147E0,-2.851736190E0,-1.029739817E1,1.096111544E1
5.493876417E0,3.082743309E0,-2.578484693E0,-1.124066398E1,1.193752137E1
5.503811417E0,3.522562976E0,-2.381611281E0,-1.137964294E1,1.214811902E1
5.513747417E0,3.546121116E0,-2.141678973E0,-1.097038930E1,1.172651718E1
5.523682417E0,3.081709813E0,-2.072881218E0,-1.055977794E1,1.119386805E1
5.533618417E0,2.623564972E0,-2.074845298E0,-1.010269758E1,1.064201929E1
5.543553417E0,2.424921607E0,-2.122990687E0,-9.352347786E0,9.892105103E0
5.553488417E0,2.410843851E0,-2.265836996E0,-8.513855892E0,9.134107922E0
5.563424417E0,2.573033334E0,-2.385867469E0,-7.591189821E0,8.362955639E0
5.573359417E0,2.516642494E0,-2.317284892E0,-6.862518577E0,7.667950178E0
5.583295417E0,2.299924801E0,-2.121938188E0,-6.485370244E0,7.200854322E0
5.593230417E0,2.036096092E0,-1.832051362E0,-6.345476779E0,6.911380111E0
5.603166417E0,1.786192527E0,-1.408315923E0,-6.472768325E0,6.860799317E0
5.613101417E0,1.518585347E0,-1.072276440E0,-6.743678012E0,6.995217748E0
5.623037417E0,1.440257508E0,-1.215968841E0,-7.218201197E0,7.460251365E0
5.632972417E0,1.529202429E0,-1.980203435E0,-7.429889114E0,7.839828950E0
5.642907417E0,1.572503985E0,-3.020471631E0,-6.835251256E0,7.636535693E0
5.652843417E0,1.666873952E0,-3.654111003E0,-5.629299281E0,6.915201109E0
5.662778417E0,2.070412231E0,-4.132834243E0,-4.506958981E0,6.455974360E0
5.672714417E0,2.424273444E0,-4.588289073E0,-3.820107608E0,6.443812573E0
5.682649417E0,2.482551765E0,-4.351765106E0,-2.515468665E0,5.606113218E0
5.692585417E0,1.510743500E0,-3.600523025E0,1.855695748E-1,3.909034158E0
5.702520417E0,1.146391506E0,-4.048676437E0,1.827285882E0,4.587479490E0
5.712456417E0,1.005639962E0,-3.880942039E0,2.690015069E0,4.827960638E0
5.722391417E0,6.300519584E-1,-3.485465024E0,2.856930857E0,4.550547860E0
5.732327417E0,4.983128741E-2,-2.669242251E0,2.938035831E0,3.969810058E0
5.742262417E0,-4.590605155E-2,-1.540478784E0,2.846732143E0,3.237138574E0
5.752197417E0,6.831033075E-1,-7.361612347E-1,2.092903839E0,2.321381048E0
5.762133417E0,1.878315410E0,-6.039635825E-1,1.376791829E0,2.405908670E0
5.772068417E0,2.394134555E0,-7.401586837E-1,1.304600351E0,2.825189767E0
5.782004417E0,2.150729293E0,-1.235005328E0,1.143585573E0,2.731055221E0
5.791939417E0,1.899720020E0,-1.545150125E0,1.294280600E0,2.769763046E0
5.801875417E0,1.272243029E0,-1.944357664E0,2.481178254E0,3.399319723E0
5.811810417E0,1.642688991E-1,-2.139705099E0,4.281162316E0,4.788911459E0
5.821746417E0,-6.385281553E-1,-1.911236696E0,5.681379261E0,6.028151808E0
5.831681417E0,-1.280198458E0,-1.772407424E0,6.723057221E0,7.069641757E0
5.841617917E0,-1.791431925E0,-1.611731346E0,7.667984228E0,8.037716615E0
5.851553917E0,-1.892610683E0,-1.245107709E0,8.237358021E0,8.543204058E0
5.861488917E0,-1.674573127E0,-8.450238186E-1,8.932370353E0,9.127184699E0
5.871424917E0,-1.431031917E0,-8.978948542E-1,1.046736036E1,1.060281568E1
5.881359917E0,-1.509367066E0,-1.494678421E0,1.245986224E1,1.263963684E1
5.891295917E0,-1.810024462E0,-2.205672363E0,1.388450593E1,1.417464934E1
5.901230917E0,-1.919921857E0,-2.833921186E0,1.461857824E1,1.501399478E1
5.911166917E0,-2.000334083E0,-3.285266885E0,1.486231358E1,1.535196013E1
5.921101917E0,-1.884571346E0,-3.914675504E0,1.427116359E1,1.491785519E1
5.931036917E0,-1.432401628E0,-4.674823771E0,1.290257833E1,1.379790851E1
5.940972917E0,-9.963851354E-1,-5.180664643E0,1.137872142E1,1.254222351E1
5.950907917E0,-4.526867580E-1,-5.616511420E0,1.048269409E1,1.190113445E1
5.960843917E0,5.484169342E-1,-6.144124399E0,1.033641313E1,1.203712849E1
5.970778917E0,1.652546520E0,-6.634649075E0,1.088760325E1,1.285649186E1
5.980714917E0,2.504447249E0,-7.187282875E0,1.146090755E1,1.375796834E1
5.990649917E0,3.177713200E0,-7.963406612E0,1.145612218E1,1.430931311E1
6.000585917E0,3.468712751E0,-9.077985903E0,1.076176533E1,1.450025479E1
6.010520917E0,3.413078249E0,-1.026751188E1,9.677732474E0,1.451652194E1
6.020456917E0,3.156303913E0,-1.129433908E1,8.325322949E0,1.438177151E1
6.030391917E0,2.833030070E0,-1.205091499E1,6.660641702E0,1.405755169E1
6.040326917E0,2.785134358E0,-1.262990863E1,4.714769610E0,1.376592234E1
6.050262917E0,2.761056985E0,-1.313457479E1,3.238138327E0,1.380673859E1
6.060197917E0,2.445123299E0,-1.364254697E1,2.177159877E0,1.402988742E1
6.070133917E0,2.073532744E0,-1.395183311E1,1.133491525E0,1.415054727E1
6.080068917E0,1.589056136E0,-1.415860469E1,-5.972609192E-2,1.424762272E1
6.090004917E0,1.383181228E0,-1.420405159E1,-1.064861878E0,1.431091201E1
6.099939917E0,1.436548912E0,-1.406956095E1,-1.728933960E0,1.424799743E1
6.109875917E0,1.507768729E0,-1.369806161E1,-1.987955089E0,1.392344152E1
6.119810917E0,1.419968547E0,-1.327595345E1,-1.735866565E0,1.346404410E1
6.129745917E0,1.052377415E0,-1.315560840E1,-1.285965275E0,1.326013715E1
6.139681917E0,6.719836575E-1,-1.303341445E1,-1.273610693E0,1.311272430E1
6.149616917E0,6.672604959E-1,-1.230423275E1,-1.863886528E0,1.246248182E1
6.159552917E0,8.900864093E-1,-1.155541141E1,-2.204015408E0,1.179735015E1
6.169487917E0,7.249081951E-1,-1.120568360E1,-2.455664513E0,1.149448237E1
6.179423917E0,5.326510866E-1,-1.079615397E1,-3.178340607E0,1.126687653E1
6.189358917E0,5.066481531E-1,-1.004723908E1,-4.127273248E0,1.087373395E1
6.199294917E0,9.428942218E-1,-9.040226923E0,-4.788131408E0,1.027331274E1
6.209229917E0,1.334271462E0,-8.125273329E0,-5.139641747E0,9.706506287E0
6.219164917E0,1.277853871E0,-7.573856335E0,-5.638887545E0,9.528549892E0
6.229100917E0,1.196594092E0,-7.139021711E0,-6.196176898E0,9.528382683E0
6.239035917E0,1.134065575E0,-6.640085231E0,-6.192346972E0,9.149972548E0
6.248971917E0,9.835586831E-1,-5.873453863E0,-5.815293363E0,8.323610086E0
6.258906917E0,1.090399007E0,-4.877944933E0,-6.041930857E0,7.841444079E0
6.268842917E0,1.703380166E0,-4.177658998E0,-7.044948782E0,8.365742168E0
6.278777917E0,2.542702657E0,-3.723016931E0,-8.223034097E0,9.377871914E0
6.288713917E0,3.276734043E0,-3.332440467E0,-9.196729404E0,1.031610281E1
6.298648917E0,3.656284120E0,-2.906591844E0,-9.917326813E0,1.096221058E1
6.308584917E0,3.741706679E0,-2.688961986E0,-1.028187849E1,1.126711634E1
6.318519917E0,3.684206622E0,-2.528324938E0,-1.024887797E1,1.118057714E1
6.328454917E0,3.634164688E0,-2.337272429E0,-9.995995252E0,1.088989975E1
6.338390917E0,3.585301846E0,-2.264666383E0,-9.698907580E0,1.058545754E1
6.348325917E0,3.546090418E0,-2.107656949E0,-9.342616850E0,1.021280885E1
6.358261917E0,3.351366442E0,-2.017646080E0,-8.872572048E0,9.696653416E0
6.368196917E0,2.963765042E0,-1.963914846E0,-8.220005239E0,8.955967333E0
6.378132917E0,2.414340486E0,-1.732586131E0,-7.635233388E0,8.193148575E0
6.388067917E0,1.825805659E0,-1.450891255E0,-7.214047920E0,7.581631693E0
6.398003917E0,1.402657865E0,-1.182774197E0,-6.754951444E0,6.999698057E0
6.407938917E0,1.221082231E0,-7.477776057E-1,-6.352850118E0,6.512212971E0
6.417873917E0,1.374890023E0,-4.262064725E-1,-5.887150381E0,6.060570447E0
6.427809917E0,1.777274061E0,-4.421021283E-1,-5.134358788E0,5.451219822E0
6.437744917E0,1.994404275E0,-7.127393353E-1,-4.210080639E0,4.712793732E0
6.447680917E0,2.193232996E0,-1.285646017E0,-3.274714707E0,4.145710201E0
6.457615917E0,2.158277464E0,-1.764840542E0,-2.515734129E0,3.755228616E0
6.467551917E0,1.818001380E0,-2.136397768E0,-2.238800055E0,3.589087646E0
6.477486917E0,1.360913569E0,-2.382510583E0,-2.510988821E0,3.719342318E0
6.487422917E0,1.100708233E0,-2.573734415E0,-2.921770631E0,4.046283613E0
6.497357917E0,9.658530217E-1,-2.657501042E0,-2.816172255E0,3.990740535E0
6.507292917E0,1.448210599E0,-2.168081490E0,-1.456366003E0,2.986451610E0
6.517228917E0,2.077930435E0,-1.945240009E0,1.185353404E0,3.083312550E0
6.527163917E0,2.379062480E0,-2.450594977E0,3.846724133E0,5.144185123E0
6.537099917E0,2.527604561E0,-2.820692738E0,5.297861556E0,6.512482584E0
6.547034917E0,2.301675458E0,-3.010725492E0,5.552791972E0,6.722772984E0
6.556970917E0,1.304161079E0,-2.951536467E0,4.809034327E0,5.791305103E0
6.566905917E0,8.807894826E-2,-2.434994021E0,3.045737450E0,3.900444898E0
6.576841917E0,-6.722994071E-1,-1.998237125E0,1.036679175E0,2.349391796E0
6.586776917E0,-1.088758864E0,-1.637072448E0,-7.222188413E-2,1.967388641E0
6.596711917E0,-6.195863195E-1,-1.119516387E0,1.474474829E-1,1.288000353E0
6.606647917E0,1.075931534E-1,-8.804503441E-1,1.572364821E0,1.805297822E0
6.616582917E0,5.331539471E-1,-1.145083630E0,3.526963298E0,3.746323499E0
6.626518917E0,5.214399277E-1,-1.629840612E0,5.153740554E0,5.430407141E0
6.636453917E0,-1.387091115E-2,-1.945234746E0,5.986769394E0,6.294881921E0
6.646389917E0,-1.005333568E0,-2.135256976E0,6.095939834E0,6.536857073E0
6.656324917E0,-2.079969067E0,-1.963119771E0,6.217777682E0,6.844039002E0
6.666260917E0,-2.736774083E0,-1.563337305E0,7.161253994E0,7.824162235E0
6.676195917E0,-3.123008990E0,-1.550231648E0,8.919896488E0,9.577105860E0
6.686130917E0,-3.036712273E0,-1.817426599E0,1.081291911E1,1.137734066E1
6.696066917E0,-2.564954529E0,-1.801862334E0,1.247455512E1,1.286235690E1
6.706001917E0,-2.551875769E0,-1.607484367E0,1.411530956E1,1.443391977E1
6.715937917E0,-2.508551117E0,-2.142508108E0,1.477187236E1,1.513576502E1
6.725872917E0,-2.267352302E0,-2.713750672E0,1.437556095E1,1.480412381E1
6.735808917E0,-2.079901678E0,-3.238778012E0,1.325124078E1,1.379895127E1
6.745743917E0,-1.864800448E0,-4.082186538E0,1.182582760E1,1.264879148E1
6.755679917E0,-1.596532825E0,-4.946353848E0,1.078034193E1,1.196791985E1
6.765614917E0,-1.168540613E0,-5.624941936E0,1.039099689E1,1.187342728E1
6.775550917E0,-5.906036815E-1,-6.191662263E0,1.023248004E1,1.197452054E1
6.785485917E0,1.117644840E-1,-6.689736278E0,9.990137511E0,1.202363964E1
6.795420917E0,7.753825300E-1,-7.036265082E0,9.685885831E0,1.199694247E1
6.805356917E0,1.440779080E0,-7.386662403E0,9.137552074E0,1.183779894E1
6.815291917E0,2.060580723E0,-7.876108267E0,8.399665033E0,1.169758296E1
6.825227917E0,2.611116250E0,-8.512703406E0,7.556520510E0,1.167840098E1
6.835162917E0,2.898185010E0,-9.387933941E0,6.650386856E0,1.186424989E1
6.845098417E0,2.706081464E0,-1.017672450E1,5.879638463E0,1.206062797E1
6.855033417E0,2.151235370E0,-1.090709436E1,4.979232157E0,1.218134943E1
6.864969417E0,1.430516632E0,-1.171521933E1,3.558935874E0,1.232715564E1
6.874904417E0,8.586749475E-1,-1.214979141E1,2.043874936E0,1.235039184E1
6.884839417E0,3.925067029E-1,-1.223321714E1,9.878993636E-1,1.227931628E1
6.894775417E0,2.828313560E-1,-1.220904592E1,3.277124637E-1,1.221671770E1
6.904710417E0,8.219925863E-1,-1.225686562E1,1.297342202E-1,1.228508273E1
6.914646417E0,1.302173172E0,-1.256112900E1,1.485227859E-1,1.262931810E1
6.924581417E0,1.643059851E0,-1.265862313E1,-1.399522296E-1,1.276557762E1
6.934517417E0,2.056820379E0,-1.224149329E1,-7.752811539E-1,1.243727177E1
6.944452417E0,2.342699961E0,-1.185905615E1,-1.514338076E0,1.218272038E1
6.954388417E0,2.589968040E0,-1.123756028E1,-2.170098195E0,1.173456525E1
6.964323417E0,2.641768231E0,-1.047342860E1,-2.642781261E0,1.112006919E1
6.974259417E0,2.283723336E0,-1.005829266E1,-2.915992413E0,1.071856591E1
6.984194417E0,1.801816287E0,-9.634164870E0,-3.098716732E0,1.027938325E1
6.994129417E0,1.525361685E0,-9.024012010E0,-3.396460462E0,9.761939597E0
7.004065417E0,1.495149122E0,-8.480277087E0,-3.727873628E0,9.383368913E0
7.014000417E0,1.650500725E0,-8.142634297E0,-3.998254435E0,9.220232343E0
7.023936417E0,1.540385229E0,-7.884290861E0,-4.197198054E0,9.063735462E0
7.033871417E0,1.209947086E0,-7.441028645E0,-4.493941909E0,8.776582087E0
7.043807417E0,1.054428106E0,-6.669244126E0,-4.659917464E0,8.203990896E0
7.053742417E0,1.036312409E0,-5.927278653E0,-4.744956153E0,7.662974914E0
7.063678417E0,1.278069779E0,-5.312570227E0,-5.030819217E0,7.427382229E0
7.073613417E0,1.613763400E0,-4.838375655E0,-5.360748360E0,7.399441484E0
7.083548417E0,1.823982497E0,-4.427889422E0,-5.607824796E0,7.374334942E0
7.093484417E0,2.018844467E0,-3.901224861E0,-5.668518895E0,7.171289623E0
7.103419417E0,2.106177018E0,-3.233530136E0,-6.076535264E0,7.198331723E0
7.113355417E0,2.236327268E0,-2.702275511E0,-7.353228024E0,8.146988092E0
7.123290417E0,2.582706968E0,-2.340849171E0,-8.580879602E0,9.261827296E0
7.133226417E0,2.890423416E0,-1.954033052E0,-9.280874931E0,9.915010447E0
7.143161417E0,2.815127943E0,-1.706982343E0,-9.795143394E0,1.033361351E1
7.153097417E0,2.327309651E0,-1.865600932E0,-9.807513764E0,1.025105669E1
7.163032417E0,1.897102806E0,-2.040842569E0,-9.290356776E0,9.699214735E0
7.172967417E0,1.846320323E0,-2.083552971E0,-8.724993002E0,9.158362005E0
7.182903417E0,1.905229559E0,-2.147929646E0,-8.280174258E0,8.763834045E0
7.192838417E0,2.202138306E0,-2.076094263E0,-7.861308964E0,8.423761579E0
7.202774417E0,2.317826052E0,-1.897624378E0,-7.389807036E0,7.973866309E0
7.212709417E0,2.202167249E0,-1.545089899E0,-7.129729900E0,7.620360349E0
7.222645417E0,2.067497394E0,-9.809207118E-1,-7.062309165E0,7.423810454E0
7.232580417E0,2.045935494E0,-4.741179729E-1,-7.189910613E0,7.490357436E0
7.242516417E0,1.986683027E0,-2.746197456E-1,-7.284017456E0,7.555080129E0
7.252451417E0,1.886553552E0,-2.979793721E-1,-7.325063741E0,7.569969274E0
7.262386417E0,2.035795838E0,-5.415667748E-1,-6.921587150E0,7.235062400E0
7.272322417E0,2.093610767E0,-9.210078013E-1,-5.703464195E0,6.144995137E0
7.282257417E0,2.439539062E0,-1.282638794E0,-3.902690173E0,4.777813694E0
7.292193417E0,2.988406670E0,-1.464590111E0,-1.785938466E0,3.776926637E0
7.302128417E0,3.212492147E0,-1.596953532E0,3.048095047E-1,3.600454862E0
7.312064417E0,2.873821709E0,-1.761545051E0,1.725314534E0,3.786634709E0
7.321999417E0,2.112904532E0,-1.757510473E0,1.633300409E0,3.197010924E0
7.331935417E0,1.349404933E0,-1.283670827E0,8.335673690E-2,1.864310278E0
7.341870417E0,1.470162800E0,-5.825066400E-1,-1.317308689E0,2.058153257E0
7.351806417E0,2.108351598E0,-1.831049734E-1,-1.068064106E0,2.370534713E0
7.361741417E0,2.962919827E0,-1.627274269E-1,5.231094539E-1,3.013140822E0
7.371676417E0,3.633601894E0,-4.563143706E-1,2.611066548E0,4.497660953E0
7.381612417E0,3.467119970E0,-1.282251123E0,4.287082622E0,5.660756684E0
7.391547417E0,2.658201538E0,-1.668978073E0,5.207282338E0,6.080075047E0
7.401483417E0,1.764708541E0,-1.535088529E0,5.321292518E0,5.812645447E0
7.411418417E0,1.170048171E0,-1.297452422E0,4.899296041E0,5.201489903E0
7.421354417E0,1.100364856E0,-1.082568416E0,4.467057581E0,4.726241702E0
7.431289417E0,9.666801104E-1,-1.375795902E0,4.542747449E0,4.843948718E0
7.441225417E0,1.874937473E-1,-1.886325657E0,5.608815315E0,5.920488799E0
7.451160417E0,-5.471154901E-1,-1.769951593E0,7.350225479E0,7.580097532E0
7.461095417E0,-7.433291902E-1,-1.361101850E0,9.684236332E0,9.807628146E0
7.471031417E0,-1.148010892E0,-1.522448310E0,1.243794220E1,1.258325014E1
7.480966417E0,-2.225460364E0,-1.733444795E0,1.498772115E1,1.525087834E1
7.490902417E0,-3.279122631E0,-2.370189622E0,1.615484645E1,1.665381361E1
7.500837417E0,-3.812346014E0,-3.186847721E0,1.609634155E1,1.684583604E1
7.510773417E0,-3.780409691E0,-4.035865772E0,1.505979160E1,1.604297456E1
7.520708417E0,-3.502961063E0,-4.907265796E0,1.315206966E1,1.446820411E1
7.530644417E0,-3.008515829E0,-5.401679454E0,1.118973941E1,1.278434889E1
7.540579417E0,-2.323655726E0,-5.607145350E0,9.634157268E0,1.138667823E1
7.550514417E0,-1.230486015E0,-5.420124496E0,8.814973465E0,1.042092139E1
7.560450417E0,-6.681934923E-2,-5.246254030E0,8.826679006E0,1.026829628E1
7.570385417E0,7.940145365E-1,-5.474940974E0,9.585152923E0,1.106709512E1
7.580321417E0,1.487223806E0,-5.894324915E0,1.064513091E1,1.225861791E1
7.590256417E0,2.155102864E0,-6.745268455E0,1.115702541E1,1.321447429E1
7.600192417E0,2.506071605E0,-8.035456588E0,1.076941582E1,1.366855057E1
7.610127417E0,2.361762030E0,-9.305251973E0,9.532548448E0,1.352904705E1
7.620063417E0,2.169504264E0,-1.033849942E1,7.870868577E0,1.317352994E1
7.629998417E0,1.916202444E0,-1.123123593E1,6.288793870E0,1.301389337E1
7.639934417E0,1.686160993E0,-1.184703428E1,4.948974570E0,1.294942892E1
7.649869417E0,1.557473424E0,-1.226609136E1,3.608471730E0,1.288036447E1
7.659804417E0,1.530521269E0,-1.252014820E1,2.335204854E0,1.282769613E1
7.669740417E0,1.381195368E0,-1.290790397E1,1.206940740E0,1.303757613E1
7.679675417E0,1.070562182E0,-1.315184981E1,3.367879272E-1,1.319964707E1
7.689611417E0,9.303110868E-1,-1.314080792E1,-4.878027964E-1,1.318272594E1
7.699546417E0,9.056984751E-1,-1.308453549E1,-1.329236717E0,1.318302807E1
7.709482417E0,1.078548236E0,-1.275600500E1,-2.005236534E0,1.295761951E1
7.719417417E0,1.197744093E0,-1.233054288E1,-2.386851556E0,1.261641546E1
7.729353417E0,1.349431538E0,-1.195290747E1,-2.462870622E0,1.227838321E1
7.739288417E0,1.573460443E0,-1.140765344E1,-2.370296919E0,1.175706776E1
7.749223417E0,1.682027596E0,-1.093779809E1,-2.260178061E0,1.129482398E1
7.759159417E0,1.680820877E0,-1.042509434E1,-2.477286347E0,1.084641409E1
7.769094417E0,1.445864988E0,-9.948876050E0,-3.214869332E0,1.055490621E1
7.779030417E0,1.156300636E0,-9.436044247E0,-3.832347000E0,1.025001686E1
7.788965417E0,7.983593101E-1,-9.002747440E0,-3.912667862E0,9.848645027E0
7.798901417E0,4.606172635E-1,-8.688744943E0,-3.494860623E0,9.376593610E0
7.808836417E0,9.095036969E-2,-8.578948267E0,-3.363887085E0,9.215332965E0
7.818772417E0,1.020931162E-1,-8.048704040E0,-3.716794032E0,8.866037311E0
7.828707417E0,3.691579668E-1,-7.166028246E0,-4.053297784E0,8.241205091E0
7.838641792E0,7.969553205E-1,-6.486656047E0,-4.410851220E0,7.884633976E0
7.848577792E0,1.069100963E0,-5.775909442E0,-5.075107198E0,7.762784283E0
7.858512792E0,1.253667887E0,-5.083764585E0,-5.965259242E0,7.937295720E0
7.868448792E0,1.529076129E0,-4.321526231E0,-6.983085240E0,8.353271350E0
7.878383792E0,1.796390364E0,-3.773210599E0,-7.976474555E0,9.004903269E0
7.888319792E0,2.397057871E0,-3.480929924E0,-8.434940701E0,9.434563275E0
7.898254792E0,3.104696680E0,-2.750678177E0,-8.472868665E0,9.433709521E0
7.908190792E0,3.405699939E0,-2.168641069E0,-9.030621702E0,9.892114258E0
7.918125792E0,3.613440402E0,-2.091430925E0,-9.660239943E0,1.052384296E1
7.928061792E0,3.725825056E0,-1.538483130E0,-9.595762696E0,1.040804326E1
7.937996792E0,3.880042153E0,-9.313503563E-1,-9.145256950E0,9.977868774E0
7.947931792E0,3.991225789E0,-4.862790120E-1,-8.903821322E0,9.769564203E0
7.957867792E0,3.945947875E0,-2.866848904E-1,-8.799790585E0,9.648264466E0
7.967802792E0,3.674699049E0,-4.789296466E-1,-8.491511343E0,9.264909691E0
7.977738792E0,3.217050636E0,-8.646014661E-1,-8.190197303E0,8.841735257E0
7.987673792E0,2.595394548E0,-1.306342236E0,-7.865916570E0,8.385418677E0
7.997609792E0,1.971972602E0,-1.457238407E0,-7.640418699E0,8.024226917E0
8.007544792E0,1.512554529E0,-1.292867328E0,-7.588130558E0,7.844683071E0
8.017479792E0,1.312578000E0,-1.272227826E0,-7.674257120E0,7.888957282E0
8.027415792E0,1.252720930E0,-1.708230724E0,-7.839729230E0,8.120881500E0
8.037350792E0,1.217192663E0,-2.533556442E0,-7.597179708E0,8.100469477E0
8.047286792E0,1.272262617E0,-3.287582967E0,-6.715228969E0,7.584270172E0
8.057221792E0,1.166458419E0,-3.779347252E0,-5.373130424E0,6.671927866E0
8.067157792E0,1.190101197E0,-3.754144583E0,-3.724777820E0,5.420692965E0
8.077092792E0,1.514233557E0,-3.467038693E0,-2.232509036E0,4.392875728E0
8.087028792E0,1.943106360E0,-3.299314236E0,-9.800746197E-1,3.952427484E0
8.096963792E0,2.206117190E0,-3.181450741E0,-3.316131413E-2,3.871651010E0
8.106899792E0,1.923323329E0,-3.351319372E0,3.666011256E-1,3.881354216E0
8.116834792E0,1.447561996E0,-3.500843201E0,4.265643221E-1,3.812256022E0
8.126769792E0,1.295522695E0,-3.027114068E0,9.670557940E-1,3.431762746E0
8.136705792E0,1.276383150E0,-2.434363106E0,2.175670592E0,3.505541357E0
8.146640792E0,1.439532161E0,-2.291210403E0,3.504570801E0,4.427630795E0
8.156576792E0,1.874174412E0,-2.134800308E0,4.344704009E0,5.190987864E0
8.166511792E0,2.094828011E0,-1.864746069E0,4.137183986E0,4.998187035E0
8.176447792E0,1.634033212E0,-1.707658281E0,3.027877715E0,3.841120253E0
8.186382792E0,7.727949909E-1,-1.765074138E0,2.567676700E0,3.210243362E0
8.196318792E0,-2.352203295E-1,-2.053760531E0,3.186285219E0,3.798114587E0
8.206253792E0,-8.672267197E-1,-2.402356033E0,3.707736987E0,4.502300551E0
8.216188792E0,-1.140843668E0,-2.550379174E0,3.764361423E0,4.687896664E0
8.226124792E0,-1.123568800E0,-2.434724757E0,3.681473633E0,4.554507613E0
8.236059792E0,-1.065914742E0,-2.486195750E0,3.888760352E0,4.737066668E0
8.245995792E0,-1.382460120E0,-2.691914245E0,4.974397679E0,5.822562198E0
8.255930792E0,-2.088124178E0,-2.775312497E0,7.056949607E0,7.865313713E0
8.265866792E0,-2.565246889E0,-2.631566594E0,9.473217335E0,1.016107676E1
8.275801792E0,-3.228222619E0,-2.089393755E0,1.239033417E1,1.297333297E1
8.285737792E0,-4.160538058E0,-1.987518302E0,1.540560412E1,1.608082536E1
8.295672792E0,-5.082641920E0,-2.317373624E0,1.763379206E1,1.849740770E1
8.305607792E0,-5.159158584E0,-3.011097375E0,1.829704641E1,1.924748119E1
8.315543792E0,-4.483881775E0,-4.059436776E0,1.746378543E1,1.848155904E1
8.325478792E0,-3.704093879E0,-4.869282283E0,1.544932842E1,1.661661729E1
8.335414792E0,-3.020741773E0,-5.115789201E0,1.277312682E1,1.408719094E1
8.345349792E0,-1.862565934E0,-5.289547985E0,1.048675674E1,1.189203669E1
8.355285792E0,-6.607154882E-1,-5.313172490E0,9.190514399E0,1.063634814E1
8.365220792E0,4.684699645E-1,-5.376469184E0,8.733076193E0,1.026608517E1
8.375156792E0,1.332775890E0,-5.683210609E0,8.861975724E0,1.061177592E1
8.385091792E0,1.756228909E0,-6.335340046E0,9.282543726E0,1.137481831E1
8.395027792E0,1.935346081E0,-7.299047724E0,9.533388108E0,1.216170839E1
8.404962792E0,1.911679768E0,-8.427255705E0,9.146206537E0,1.258277602E1
8.414897792E0,1.587230197E0,-9.527974756E0,8.000687875E0,1.254243234E1
8.424833792E0,1.097682153E0,-1.057677696E1,6.422589859E0,1.242267192E1
8.434768792E0,7.506023955E-1,-1.138191868E1,4.734531444E0,1.235019290E1
8.444704792E0,9.120929170E-1,-1.175136214E1,3.227810390E0,1.222068678E1
8.454639792E0,1.379413575E0,-1.196268519E1,2.285626897E0,1.225694534E1
8.464575792E0,1.604756788E0,-1.248403697E1,1.672439332E0,1.269738070E1
8.474510792E0,1.560208167E0,-1.298968781E1,1.017303842E0,1.312254342E1
8.484446792E0,1.486072782E0,-1.309279059E1,4.581480575E-1,1.318481996E1
8.494381792E0,1.410255006E0,-1.308218257E1,2.067516983E-2,1.315799177E1
8.504316792E0,1.558905115E0,-1.298416803E1,-6.013934389E-1,1.309123672E1
8.514252792E0,1.975935114E0,-1.255473682E1,-1.236972916E0,1.276933194E1
8.524187792E0,2.101718663E0,-1.226130015E1,-1.725915043E0,1.255927886E1
8.534123792E0,1.999944512E0,-1.182605447E1,-2.144119601E0,1.218411224E1
8.544058792E0,1.950043058E0,-1.133081167E1,-2.310228472E0,1.172719560E1
8.553994792E0,1.832781826E0,-1.097690310E1,-2.206732171E0,1.134553471E1
8.563929792E0,1.766666043E0,-1.056894053E1,-2.410500619E0,1.098335677E1
8.573865792E0,1.652361748E0,-1.033309425E1,-3.011487969E0,1.088908609E1
8.583800792E0,1.629551759E0,-9.770533633E0,-3.511748843E0,1.050957403E1
8.593735792E0,1.543294950E0,-8.830161023E0,-3.665496409E0,9.684491051E0
8.603671792E0,1.203676239E0,-7.894959106E0,-4.052736451E0,8.955662372E0
8.613606792E0,8.977506472E-1,-7.108249569E0,-4.880099925E0,8.668825955E0
8.623542792E0,5.408230090E-1,-6.354823553E0,-5.745930183E0,8.584403624E0
8.633477792E0,1.006437376E-1,-5.905922867E0,-6.571005056E0,8.835618910E0
8.643413792E0,-4.619212657E-2,-5.443166034E0,-7.345721369E0,9.142746448E0
8.653348792E0,2.509066549E-1,-5.221578196E0,-8.145246248E0,9.678474541E0
8.663284792E0,9.356229168E-1,-4.893499112E0,-8.520069728E0,9.869818234E0
8.673219792E0,1.663243124E0,-4.342261042E0,-8.495029612E0,9.684375910E0
8.683155792E0,2.163137670E0,-3.771126652E0,-8.563659552E0,9.604000506E0
8.693090792E0,2.649457612E0,-3.140871064E0,-8.893148400E0,9.796570070E0
8.703025792E0,2.960612223E0,-2.651631607E0,-9.129478823E0,9.957095886E0
8.712961792E0,2.983596458E0,-2.285314071E0,-9.274167005E0,1.000673183E1
8.722896792E0,2.819364250E0,-2.074143047E0,-9.296910335E0,9.933953187E0
8.732832792E0,2.675690853E0,-1.989126286E0,-9.029182702E0,9.625075854E0
8.742767792E0,2.601656624E0,-1.890891894E0,-8.663397263E0,9.241133128E0
8.752703792E0,2.535810544E0,-1.868477177E0,-8.272851205E0,8.852209280E0
8.762638792E0,2.293403986E0,-1.990553591E0,-7.806904131E0,8.376739077E0
8.772574792E0,1.813029785E0,-1.939177031E0,-7.538114644E0,7.991911971E0
8.782509792E0,1.194456934E0,-1.625137696E0,-7.428281715E0,7.697218273E0
8.792444792E0,6.860584903E-1,-1.341257131E0,-7.122301598E0,7.279891963E0
8.802380792E0,5.740995133E-1,-9.531768429E-1,-6.610175554E0,6.703175158E0
8.812315792E0,8.286831897E-1,-5.853296757E-1,-5.853106138E0,5.940385351E0
8.822251792E0,1.010885645E0,-5.249712074E-1,-5.099167321E0,5.224843722E0
8.832186792E0,1.148075943E0,-7.465128529E-1,-4.301117694E0,4.513864556E0
8.842123042E0,1.256865144E0,-1.049140177E0,-3.375319269E0,3.751424432E0
8.852058042E0,1.385103647E0,-1.296494356E0,-2.311596136E0,2.990465921E0
8.861994042E0,1.630082979E0,-1.192982851E0,-1.190831661E0,2.344879239E0
8.871929042E0,1.741936414E0,-9.194606280E-1,-3.587635177E-1,2.002114277E0
8.881864042E0,1.655361954E0,-8.184260041E-1,-2.504572964E-1,1.863537813E0
8.891800042E0,1.365506996E0,-7.407322955E-1,-8.115181035E-1,1.752670911E0
8.901735042E0,1.023737533E0,-7.213201243E-1,-1.521012819E0,1.970233807E0
8.911671042E0,1.305111690E0,-4.643273950E-1,-9.436271703E-1,1.676111180E0
8.921606042E0,2.003378582E0,-6.245317483E-1,8.506283748E-1,2.264317619E0
8.931542042E0,2.794147840E0,-7.872322780E-1,2.931837782E0,4.125853802E0
8.941477042E0,3.175480734E0,-9.969701493E-1,4.759713648E0,5.807968782E0
8.951413042E0,2.734983081E0,-1.174917294E0,5.967671219E0,6.668857689E0
8.961348042E0,1.587483382E0,-8.707585841E-1,6.581009057E0,6.825540580E0
8.971283042E0,-6.432843536E-2,-5.770546961E-1,5.936075789E0,5.964404919E0
8.981219042E0,-1.131556097E0,-4.431347466E-1,4.162617620E0,4.336377873E0
8.991154042E0,-1.219642208E0,-9.247313082E-2,2.385649368E0,2.680932916E0
9.001090042E0,-9.686278179E-1,1.501968437E-1,1.260183147E0,1.596515113E0
9.011025042E0,-3.264544353E-1,-4.698734790E-2,8.429802167E-1,9.052049243E-1
9.020961042E0,-1.952902785E-1,-3.461545819E-1,1.695795450E0,1.741747254E0
9.030896042E0,-9.820957097E-1,-2.839808455E-1,3.761585750E0,3.898035974E0
9.040832042E0,-1.392747858E0,-3.970791525E-1,5.651025780E0,5.833653299E0
9.050767042E0,-1.421147638E0,-7.091661018E-1,6.729214339E0,6.914108966E0
9.060702042E0,-1.840610224E0,-7.235762724E-1,7.356711795E0,7.617914220E0
9.070638042E0,-2.383942274E0,-5.002097109E-1,7.583508334E0,7.965110744E0
9.080573042E0,-2.385184515E0,-6.134577066E-2,7.668602278E0,8.031209708E0
9.090509042E0,-1.588639669E0,3.640438458E-1,7.940234681E0,8.105777613E0
9.100444042E0,-2.799969913E-1,5.578933704E-1,8.461652536E0,8.484645365E0
9.110380042E0,9.384693414E-1,4.873016900E-1,9.249809259E0,9.310056872E0
9.120315042E0,1.578464636E0,1.987217170E-1,1.042008562E1,1.054083608E1
9.130251042E0,1.756512645E0,-5.290522715E-1,1.162037866E1,1.176428634E1
9.140186042E0,1.394693665E0,-1.414908659E0,1.220322911E1,1.236389654E1
9.150121042E0,8.573044333E-1,-2.395500465E0,1.201317005E1,1.227964364E1
9.160057042E0,3.085145929E-1,-3.418207134E0,1.131919560E1,1.182808143E1
9.169992042E0,-5.461884141E-2,-4.293132736E0,1.064366794E1,1.147700480E1
9.179928042E0,2.035082477E-1,-4.788272911E0,1.059467412E1,1.162824547E1
9.189863042E0,8.447903685E-1,-5.606198686E0,1.131754902E1,1.265820091E1
9.199799042E0,1.343320905E0,-6.933562832E0,1.200642587E1,1.392957525E1
9.209734042E0,1.831365192E0,-8.068896815E0,1.205166110E1,1.461860217E1
9.219670042E0,1.986644728E0,-9.316780343E0,1.123778598E1,1.473217523E1
9.229605042E0,1.553326579E0,-1.062434289E1,9.731642048E0,1.449118154E1
9.239540042E0,1.285536966E0,-1.170222798E1,8.013998476E0,1.424145065E1
9.249476042E0,9.523574287E-1,-1.261912402E1,6.134020411E0,1.406326712E1
9.259411042E0,6.939286233E-1,-1.315217257E1,4.157224149E0,1.381099898E1
9.269347042E0,7.090907458E-1,-1.331239447E1,2.759555420E0,1.361388270E1
9.279282042E0,7.634069207E-1,-1.366475938E1,2.014276915E0,1.383350102E1
9.289218042E0,1.273316724E0,-1.374923527E1,1.233417809E0,1.386304893E1
9.299153042E0,2.107474515E0,-1.332562906E1,3.500494123E-1,1.349579094E1
9.309089042E0,2.269097842E0,-1.305221325E1,-6.795924930E-1,1.326540319E1
9.319024042E0,2.084919466E0,-1.272146199E1,-1.748186649E0,1.300917526E1
9.328960042E0,1.485705869E0,-1.234864820E1,-2.569251940E0,1.270029487E1
9.338895042E0,3.999959264E-1,-1.209293075E1,-3.346356840E0,1.255376736E1
9.348830042E0,-3.869691704E-1,-1.164888033E1,-4.361277941E0,1.244455316E1
9.358766042E0,-6.837470128E-1,-1.095128996E1,-4.960790623E0,1.204191452E1
9.368701042E0,-7.607001715E-1,-1.031937084E1,-4.490448782E0,1.127972559E1
9.378637042E0,-5.891334356E-1,-9.875877070E0,-3.430995287E0,1.047147338E1
9.388572042E0,-1.280028597E-3,-9.355896462E0,-2.543004958E0,9.695342926E0
9.398508042E0,7.376000883E-1,-8.866390371E0,-2.006885157E0,9.120554815E0
9.408443042E0,1.240697885E0,-8.236126013E0,-1.959665382E0,8.556482417E0
9.418379042E0,1.400643645E0,-7.178338974E0,-2.589340926E0,7.758546222E0
9.428314042E0,1.091263811E0,-6.295136930E0,-4.066331228E0,7.573285636E0
9.438249042E0,8.225982848E-1,-5.886744584E0,-5.684398178E0,8.224525056E0
9.448185042E0,8.949777514E-1,-5.841269619E0,-6.703532199E0,8.936372859E0
9.458120042E0,8.649292025E-1,-5.679072534E0,-6.902539260E0,8.980256990E0
9.468056042E0,1.006054968E0,-5.022300993E0,-6.737180586E0,8.463170571E0
9.477991042E0,1.613660197E0,-3.856779006E0,-7.175035881E0,8.304202757E0
9.487927042E0,2.611125897E0,-2.786643232E0,-8.270417594E0,9.109509653E0
9.497862042E0,3.602384486E0,-2.041437816E0,-9.140510180E0,1.003461851E1
9.507798042E0,4.342874123E0,-1.461831395E0,-9.282981098E0,1.035235455E1
9.517733042E0,4.780309003E0,-1.279007088E0,-8.898863468E0,1.018218956E1
9.527668042E0,4.926398470E0,-1.338877898E0,-8.336278292E0,9.775250978E0
9.537604042E0,4.811840406E0,-1.310891955E0,-7.803530288E0,9.261065315E0
9.547539042E0,4.494933597E0,-1.231300240E0,-7.504198455E0,8.833658515E0
9.557475042E0,3.933047748E0,-1.316770161E0,-7.562620325E0,8.625310106E0
9.567410042E0,3.277439218E0,-1.638779250E0,-7.703866836E0,8.530930165E0
9.577346042E0,2.641220055E0,-1.863104171E0,-7.562777030E0,8.224524116E0
9.587281042E0,2.042574222E0,-1.875342393E0,-7.321595757E0,7.829098478E0
9.597217042E0,1.611794935E0,-1.762025108E0,-7.281633546E0,7.663210978E0
9.607152042E0,1.336133215E0,-1.774364487E0,-7.247106907E0,7.579853549E0
9.617087042E0,1.138172221E0,-2.002902326E0,-7.029067744E0,7.396948498E0
9.627023042E0,1.238245563E0,-2.366549438E0,-6.550336318E0,7.073946155E0
9.636958042E0,1.322201639E0,-2.662011584E0,-5.958600433E0,6.658786824E0
9.646894042E0,1.501878975E0,-2.943190151E0,-5.269854562E0,6.220078443E0
9.656829042E0,1.778342055E0,-3.052426665E0,-4.608278949E0,5.806551806E0
9.666765042E0,1.980382067E0,-2.944969459E0,-4.041297543E0,5.378368162E0
9.676700042E0,2.149204047E0,-2.807069895E0,-3.698049905E0,5.116081755E0
9.686636042E0,2.322782152E0,-2.914023070E0,-3.625980341E0,5.199478898E0
9.696571042E0,2.318086838E0,-3.214407987E0,-3.621643168E0,5.368635258E0
9.706506042E0,1.905544139E0,-3.021406601E0,-3.032726226E0,4.685875017E0
9.716442042E0,1.130773739E0,-2.208755892E0,-1.481996688E0,2.890253626E0
9.726377042E0,1.269804155E0,-2.395400185E0,-3.119109482E-1,2.729035192E0
9.736313042E0,1.649171214E0,-2.870276542E0,7.282461512E-1,3.389483084E0
9.746248042E0,2.162513333E0,-2.923178056E0,1.455348587E0,3.916563975E0
9.756184042E0,2.694076838E0,-2.345582492E0,2.080014821E0,4.133554027E0
9.766119042E0,2.998847458E0,-1.795340204E0,2.413624202E0,4.247577464E0
9.776055042E0,3.092323679E0,-1.798518165E0,2.063712199E0,4.129896048E0
9.785990042E0,2.766235864E0,-2.448292344E0,1.012660568E0,3.830362604E0
9.795925042E0,1.381566081E0,-3.377032211E0,6.215122461E-2,3.649237477E0
9.805861042E0,-9.262537770E-2,-3.658069568E0,5.178878903E-3,3.659245721E0
9.815796042E0,-8.261768539E-1,-3.448653001E0,1.774774377E0,3.965551639E0
9.825732042E0,-1.168630368E0,-3.415231486E0,4.858037503E0,6.052274896E0
9.835667042E0,-1.085734537E0,-3.402832757E0,7.891977611E0,8.662643988E0
9.845602792E0,-8.702554312E-1,-3.016951023E0,9.705519027E0,1.020080573E1
9.855537792E0,-1.085696165E0,-2.523170033E0,1.060696263E1,1.095685992E1
9.865473792E0,-2.085652853E0,-2.733390300E0,1.119590705E1,1.171194711E1
9.875408792E0,-2.972214268E0,-2.998786647E0,1.169820159E1,1.243682835E1
9.885343792E0,-3.522971404E0,-3.164247648E0,1.238528451E1,1.325967809E1
9.895279792E0,-4.490438842E0,-3.254252961E0,1.351458768E1,1.460815811E1
9.905214792E0,-5.252857876E0,-3.063415045E0,1.464226765E1,1.585474786E1
9.915150792E0,-4.964532841E0,-3.011198532E0,1.538533182E1,1.644452304E1
9.925085792E0,-4.100818398E0,-3.582485535E0,1.572394408E1,1.664011212E1
9.935021792E0,-3.152146250E0,-4.627490268E0,1.523755865E1,1.623369600E1
9.944956792E0,-2.202526853E0,-5.445676829E0,1.393344712E1,1.512109352E1
9.954892792E0,-1.200299618E0,-5.845143399E0,1.236896142E1,1.373308513E1
9.964827792E0,-4.633316872E-1,-5.969337675E0,1.119709755E1,1.269734862E1
9.974763792E0,7.593318500E-2,-5.989690078E0,1.056703550E1,1.214678527E1
9.984698792E0,7.822040380E-1,-6.174651543E0,1.045736513E1,1.216941454E1
9.994633792E0,1.326677391E0,-7.043428506E0,1.034674399E1,1.258670208E1
1.000456979E1,1.422843038E0,-8.358484848E0,9.652342694E0,1.284743051E1
1.001450479E1,1.266904375E0,-9.529458194E0,8.263167631E0,1.267657523E1
1.002444079E1,1.026820624E0,-1.037068951E1,6.502403768E0,1.228359948E1
1.003437579E1,1.002061905E0,-1.085817656E1,4.780159607E0,1.190605107E1
1.004431179E1,8.943884982E-1,-1.121819079E1,3.307723117E0,1.172982385E1
1.005424679E1,4.820987644E-1,-1.151527496E1,2.186810707E0,1.173098963E1
1.006418279E1,2.939588998E-1,-1.183867276E1,1.305314881E0,1.191404346E1
1.007411779E1,5.767918637E-1,-1.204537768E1,3.535419542E-1,1.206436091E1
1.008405279E1,1.033892100E0,-1.219211122E1,-6.128873107E-1,1.225120972E1
1.009398879E1,1.307829914E0,-1.225523074E1,-1.278325010E0,1.239093275E1
1.010392379E1,1.353142766E0,-1.227605735E1,-1.734313106E0,1.247158456E1
1.011385979E1,1.186091323E0,-1.210494911E1,-2.164173942E0,1.235395704E1
1.012379479E1,8.671451510E-1,-1.188397231E1,-2.698150300E0,1.221723183E1
1.013373079E1,5.665253225E-1,-1.155143063E1,-3.233824836E0,1.200891850E1
1.014366579E1,3.726627879E-1,-1.082564966E1,-4.069289042E0,1.157120052E1
1.015360179E1,5.887343632E-1,-1.023036569E1,-4.629992584E0,1.124472417E1
1.016353679E1,8.090229504E-1,-9.937741781E0,-4.407060471E0,1.090116562E1
1.017347179E1,7.982145915E-1,-9.557910161E0,-3.945007643E0,1.037081860E1
1.018340779E1,5.467162715E-1,-9.088859970E0,-3.718970658E0,9.835497801E0
1.019334279E1,3.101920129E-1,-8.803972514E0,-3.656499883E0,9.538141459E0
1.020327879E1,2.822765283E-1,-8.622157436E0,-3.605810663E0,9.350034728E0
1.021321379E1,3.072147569E-1,-8.437019386E0,-3.629395114E0,9.189678227E0
1.022314979E1,3.541158584E-1,-7.897753490E0,-3.912398598E0,8.820814646E0
1.023308479E1,3.868661132E-1,-6.632377431E0,-4.461546873E0,8.002718056E0
1.024302079E1,6.444491190E-1,-5.645106059E0,-4.942377741E0,7.530579979E0
1.025295579E1,9.576224810E-1,-5.253481774E0,-5.322164923E0,7.539333593E0
1.026289079E1,1.306839542E0,-5.197323945E0,-5.558832146E0,7.721439024E0
1.027282679E1,1.557344493E0,-4.941397163E0,-5.601039687E0,7.629834426E0
1.028276179E1,1.666425471E0,-4.054526576E0,-6.029578614E0,7.454661486E0
1.029269779E1,1.863190125E0,-3.359810114E0,-6.804144069E0,7.813845273E0
1.030263279E1,2.121099697E0,-2.986021591E0,-7.271935354E0,8.142262134E0
1.031256879E1,2.042948444E0,-2.791046770E0,-7.255836800E0,8.038081120E0
1.032250379E1,1.962612379E0,-2.292737111E0,-7.100277475E0,7.715078161E0
1.033243979E1,2.075525914E0,-1.596049553E0,-7.223361949E0,7.683237589E0
1.034237479E1,2.397397301E0,-7.907663351E-1,-7.594354334E0,8.002939645E0
1.035231079E1,2.995586466E0,2.490036786E-2,-7.975512103E0,8.519562877E0
1.036224579E1,3.476518199E0,5.954593921E-1,-8.299457206E0,9.017856762E0
1.037218079E1,3.614505180E0,5.968188697E-1,-8.525780704E0,9.279535391E0
1.038211679E1,3.291423126E0,1.934019202E-1,-8.321048634E0,8.950459255E0
1.039205179E1,2.668335348E0,-2.014862806E-1,-7.962573384E0,8.400189590E0
1.040198779E1,2.238635164E0,-5.290116334E-1,-7.424658780E0,7.772830804E0
1.041192279E1,2.163982885E0,-6.408320314E-1,-6.688342302E0,7.058853332E0
1.042185879E1,2.236817557E0,-5.532810867E-1,-6.081409503E0,6.503307950E0
1.043179379E1,2.293636413E0,-5.909611291E-1,-5.666361272E0,6.141469948E0
1.044172979E1,2.258974411E0,-8.345304054E-1,-5.376862117E0,5.891523794E0
1.045166479E1,1.992489604E0,-1.315911205E0,-5.259467568E0,5.776126403E0
1.046159979E1,1.686125325E0,-1.738499420E0,-4.955132858E0,5.515318711E0
1.047153579E1,1.653982596E0,-1.875282751E0,-4.092886065E0,4.796254806E0
1.048147079E1,1.894370110E0,-1.714762064E0,-2.924165358E0,3.883270540E0
1.049140679E1,2.068850732E0,-1.612186114E0,-1.949798498E0,3.268180167E0
1.050134179E1,2.167417247E0,-1.819709060E0,-1.373869976E0,3.145879415E0
1.051127779E1,1.979010603E0,-2.192268498E0,-1.246772557E0,3.205770725E0
1.052121279E1,1.418756127E0,-2.814018726E0,-1.278756827E0,3.400998289E0
1.053114879E1,8.193586349E-1,-3.306643136E0,-1.151744193E0,3.596074539E0
1.054108379E1,3.705263615E-1,-3.495439205E0,-2.291903883E-1,3.522486799E0
1.055101879E1,3.546806994E-1,-3.520517328E0,1.929984038E0,4.030468837E0
1.056095479E1,1.083066014E0,-3.046308138E0,4.260811082E0,5.348601345E0
1.057088979E1,2.057111570E0,-2.404525934E0,5.449226089E0,6.301390160E0
1.058082579E1,2.444998461E0,-1.835355624E0,5.240913768E0,6.067431489E0
1.059076079E1,2.112083729E0,-1.122011979E0,4.031506088E0,4.687520656E0
1.060069679E1,1.030396781E0,-7.655534336E-1,2.718826640E0,3.006627327E0
1.061063179E1,3.093469441E-3,-9.559972474E-1,2.394840022E0,2.578604087E0
1.062056779E1,-3.488923945E-1,-1.262620558E0,2.442809409E0,2.771868393E0
1.063050279E1,-3.953362437E-1,-1.756504021E0,2.161662417E0,2.813251060E0
1.064043779E1,-7.205887838E-1,-2.128559283E0,2.005303777E0,3.011852595E0
1.065037379E1,-1.227390353E0,-2.180070475E0,2.316842258E0,3.409831727E0
1.066030879E1,-1.291830178E0,-2.232105432E0,3.137751575E0,4.061601262E0
1.067024479E1,-1.306501573E0,-2.115024586E0,4.798024020E0,5.403823633E0
1.068017979E1,-1.810323109E0,-1.995319218E0,7.296214163E0,7.777744510E0
1.069011579E1,-2.610676539E0,-1.826934172E0,9.786155055E0,1.029184878E1
1.070005079E1,-3.570276256E0,-1.739150654E0,1.166317443E1,1.232076115E1
1.070998679E1,-4.246388340E0,-1.866064616E0,1.322533527E1,1.401511699E1
1.071992179E1,-3.988061276E0,-2.661435926E0,1.497667459E1,1.572541433E1
1.072985679E1,-3.596565045E0,-3.980825639E0,1.613640784E1,1.700487903E1
1.073979279E1,-3.324838502E0,-5.206126928E0,1.624694010E1,1.738163891E1
1.074972779E1,-3.154492153E0,-5.909966801E0,1.497596825E1,1.640604015E1
1.075966379E1,-2.118335134E0,-6.006903697E0,1.304864294E1,1.452023823E1
1.076959879E1,-6.168251912E-1,-6.302643000E0,1.134233069E1,1.299046757E1
1.077953479E1,7.643125813E-1,-6.583259650E0,1.033775799E1,1.227976879E1
1.078946979E1,2.053979801E0,-6.898728629E0,9.899324405E0,1.223960430E1
1.079940579E1,2.590389917E0,-7.540960484E0,9.710688550E0,1.256477923E1
1.080934079E1,2.389089139E0,-8.252429804E0,9.741380001E0,1.298864230E1
1.081927579E1,2.057357738E0,-9.166234421E0,9.839544811E0,1.360401472E1
1.082921179E1,1.697222463E0,-1.032447078E1,9.439653733E0,1.409192405E1
1.083914742E1,1.462867668E0,-1.166824513E1,8.518322580E0,1.452066617E1
1.084908342E1,1.124013408E0,-1.300009819E1,7.164800915E0,1.488624638E1
1.085901842E1,9.768617939E-1,-1.404890273E1,5.326612315E0,1.505651772E1
1.086895442E1,1.283517630E0,-1.437482303E1,3.406430549E0,1.482857794E1
1.087888942E1,1.433460851E0,-1.450654676E1,1.748674745E0,1.468170877E1
1.088882542E1,1.175349695E0,-1.461571896E1,4.027538753E-1,1.466843203E1
1.089876042E1,9.238605847E-1,-1.440964203E1,-6.713802248E-1,1.445482802E1
1.090869542E1,1.022728815E0,-1.387609178E1,-1.330431011E0,1.397719371E1
1.091863142E1,1.042680904E0,-1.339391050E1,-1.633228196E0,1.353334609E1
1.092856642E1,1.127772875E0,-1.287325688E1,-1.982883506E0,1.307380745E1
1.093850242E1,1.693835464E0,-1.231138623E1,-2.065042441E0,1.259776606E1
1.094843742E1,2.042403922E0,-1.180291704E1,-1.590613835E0,1.208347287E1
1.095837342E1,1.879604867E0,-1.152227641E1,-1.150450716E0,1.173112548E1
1.096830842E1,1.545254790E0,-1.141299546E1,-9.980273259E-1,1.156029136E1
1.097824442E1,1.188051967E0,-1.147666696E1,-9.263743758E-1,1.157512512E1
1.098817942E1,9.450735522E-1,-1.070741546E1,-1.145303412E0,1.080988574E1
1.099811442E1,5.591484752E-1,-9.354087918E0,-2.408924064E0,9.675459831E0
1.100805042E1,4.583806305E-1,-8.474570205E0,-4.045420415E0,9.401801917E0
1.101798542E1,2.884960654E-1,-7.719542052E0,-5.328815546E0,9.384606256E0
1.102792142E1,-1.448757313E-1,-6.711786128E0,-6.556521503E0,9.383871068E0
1.103785642E1,1.684997982E-1,-6.570550727E0,-7.410058283E0,9.905023614E0
1.104779242E1,1.496333768E0,-6.869745151E0,-7.957116762E0,1.061829178E1
1.105772742E1,2.217607992E0,-5.979352786E0,-8.096241903E0,1.030628827E1
1.106766342E1,2.173260662E0,-4.918146295E0,-8.707818561E0,1.023412571E1
1.107759842E1,2.032818143E0,-4.350504447E0,-9.601063782E0,1.073497388E1
1.108753442E1,1.931043262E0,-3.961435395E0,-9.722592312E0,1.067476931E1
1.109746942E1,2.042540016E0,-3.561168925E0,-9.515748228E0,1.036355915E1
1.110740442E1,2.507477860E0,-3.136048281E0,-9.197105380E0,1.003538696E1
1.111734042E1,2.833741384E0,-2.838302212E0,-8.581231604E0,9.472253456E0
1.112727542E1,2.954773193E0,-2.655841017E0,-7.866559764E0,8.812884809E0
1.113721142E1,2.955651445E0,-2.304726827E0,-7.739403289E0,8.599186269E0
1.114714642E1,2.968441645E0,-1.598108357E0,-8.450156910E0,9.097843037E0
1.115708242E1,2.974175132E0,-1.134508356E0,-9.410584885E0,9.934381450E0
1.116701742E1,2.740249084E0,-1.440470932E0,-1.019090868E1,1.065075308E1
1.117695242E1,2.168972021E0,-2.100293550E0,-1.052946246E1,1.095377800E1
1.118688842E1,1.535658925E0,-2.834171154E0,-1.030120821E1,1.079377900E1
1.119682342E1,9.867006844E-1,-2.989215925E0,-9.686516161E0,1.018516497E1
1.120675942E1,7.811444494E-1,-2.645312521E0,-8.851800399E0,9.271582135E0
1.121669442E1,7.452214953E-1,-2.093021368E0,-7.849322172E0,8.157692817E0
1.122663042E1,5.754964131E-1,-1.624706172E0,-6.638614656E0,6.858722244E0
1.123656542E1,6.979154742E-1,-1.279866044E0,-5.758401124E0,5.940061162E0
1.124650142E1,1.265378398E0,-1.196058487E0,-5.668316581E0,5.929717637E0
1.125643642E1,1.950615647E0,-1.505751586E0,-5.414662027E0,5.949012869E0
1.126637242E1,2.227928620E0,-2.451079127E0,-4.342919438E0,5.461904802E0
1.127630742E1,2.006287864E0,-3.843057345E0,-2.803380886E0,5.162676161E0
1.128624242E1,1.886980106E0,-4.439375693E0,-1.117732987E0,4.951573234E0
1.129617842E1,1.952387938E0,-4.119852839E0,4.683227974E-1,4.583048365E0
1.130611342E1,2.096255755E0,-3.558759872E0,1.722341225E0,4.474988191E0
1.131604942E1,2.363426733E0,-3.113467503E0,2.151052060E0,4.461669057E0
1.132598442E1,2.606344922E0,-2.876245964E0,1.366976693E0,4.115148840E0
1.133592042E1,2.582657266E0,-2.631714821E0,-3.621174806E-1,3.705019639E0
1.134585542E1,2.347046781E0,-2.696518342E0,-2.326085536E0,4.265033844E0
1.135579142E1,1.745025351E0,-3.028553653E0,-3.793096395E0,5.157987104E0
1.136572642E1,1.344824955E0,-2.972278295E0,-3.450327351E0,4.748447247E0
1.137566142E1,1.219244451E0,-3.313186755E0,-8.521954286E-1,3.631804036E0
1.138559742E1,1.674811986E0,-3.540079480E0,2.197608175E0,4.490728182E0
1.139553242E1,2.236912136E0,-3.405438861E0,4.236134078E0,5.877552353E0
1.140546842E1,2.012642033E0,-3.232548974E0,5.050412652E0,6.325090416E0
1.141540342E1,1.205964109E0,-2.792863792E0,4.893868656E0,5.762324879E0
1.142533942E1,4.036941075E-1,-2.284764725E0,4.100410262E0,4.711314371E0
1.143527442E1,-1.655028078E-1,-1.940332441E0,3.165724069E0,3.716731097E0
1.144521042E1,-7.079500271E-1,-1.777359285E0,2.422258201E0,3.086670384E0
1.145514542E1,-1.239405358E0,-1.565926744E0,2.462837877E0,3.170776343E0
1.146508042E1,-1.660542587E0,-1.572694019E0,4.122456020E0,4.714383501E0
1.147501642E1,-2.362176890E0,-1.821617883E0,7.171695367E0,7.767328100E0
1.148495142E1,-2.387379559E0,-1.701114662E0,9.983017942E0,1.040451919E1
1.149488742E1,-2.158058340E0,-1.528759064E0,1.163812730E1,1.193483670E1
1.150482242E1,-2.413934543E0,-1.474041989E0,1.243689672E1,1.275446117E1
1.151475842E1,-2.898662435E0,-1.425279573E0,1.247570585E1,1.288708277E1
1.152469342E1,-3.293393930E0,-1.693942468E0,1.203054797E1,1.258769118E1
1.153462942E1,-3.592611743E0,-2.095603352E0,1.131160240E1,1.205200238E1
1.154456442E1,-3.340656390E0,-1.961786021E0,1.062752963E1,1.131163010E1
1.155449942E1,-2.773434956E0,-1.967480186E0,1.032323468E1,1.086885891E1
1.156443542E1,-2.086412991E0,-2.169206495E0,1.020952504E1,1.064391740E1
1.157437042E1,-1.173578135E0,-2.231330822E0,9.942565734E0,1.025722849E1
1.158430642E1,-2.531990558E-1,-2.329928180E0,9.326053442E0,9.616025577E0
1.159424142E1,3.218819126E-1,-2.494721867E0,8.868929817E0,9.218739679E0
1.160417742E1,7.187153359E-1,-2.759531154E0,8.827987613E0,9.277118584E0
1.161411242E1,1.051478332E0,-3.488903187E0,9.159599000E0,9.857804318E0
1.162404842E1,1.037690598E0,-4.411443543E0,9.572188477E0,1.059077090E1
1.163398342E1,9.412460379E-1,-5.271310519E0,9.589545937E0,1.098326226E1
1.164391842E1,9.999033319E-1,-6.032042631E0,9.213370580E0,1.105764633E1
1.165385442E1,9.521174736E-1,-6.936101108E0,8.753344397E0,1.120879407E1
1.166378942E1,9.166742836E-1,-8.032254653E0,8.511425790E0,1.173890010E1
1.167372542E1,9.640302254E-1,-9.244611084E0,8.515487266E0,1.260578089E1
1.168366042E1,1.033016041E0,-1.055358925E1,8.332729617E0,1.348628010E1
1.169359642E1,1.056537855E0,-1.170953817E1,7.622208715E0,1.401169590E1
1.170353142E1,8.875443323E-1,-1.271822965E1,6.368149357E0,1.425112019E1
1.171346742E1,6.533767209E-1,-1.346942261E1,4.776760036E0,1.430628125E1
1.172340242E1,3.996293425E-1,-1.382260146E1,3.316982768E0,1.422063252E1
1.173333742E1,3.528371454E-1,-1.395253594E1,2.142146750E0,1.412043009E1
1.174327342E1,2.028799644E-1,-1.441884320E1,1.456764198E0,1.449366626E1
1.175320842E1,6.660088263E-2,-1.512074765E1,1.367086036E0,1.518256794E1
1.176314442E1,1.894182853E-1,-1.548637872E1,1.058118576E0,1.552364069E1
1.177307942E1,6.889642641E-1,-1.536351820E1,2.341581827E-1,1.538074098E1
1.178301542E1,1.362589089E0,-1.506365544E1,-1.165922522E0,1.517002767E1
1.179295042E1,1.833587572E0,-1.394362596E1,-2.754230361E0,1.433082458E1
1.180288642E1,1.767762980E0,-1.251252577E1,-3.961368152E0,1.324313878E1
1.181282142E1,1.403150785E0,-1.107441244E1,-4.530770012E0,1.204737813E1
1.182275642E1,9.463389628E-1,-1.022379576E1,-4.499686214E0,1.121020665E1
1.183269242E1,4.899710901E-1,-9.955927792E0,-4.121774819E0,1.078654706E1
1.184262671E1,3.559450136E-1,-9.466765518E0,-3.364652778E0,1.005322011E1
1.185256271E1,3.473567694E-1,-9.060614995E0,-3.180273696E0,9.608826234E0
1.186249771E1,4.752026314E-1,-7.972427112E0,-4.376523972E0,9.107105669E0
1.187243371E1,4.449812973E-1,-6.715450578E0,-6.117664579E0,9.095114333E0
1.188236871E1,1.080020200E-1,-6.130443084E0,-6.644952453E0,9.041536924E0
1.189230471E1,-4.115814167E-1,-6.045629806E0,-5.982273470E0,8.515082788E0
1.190223971E1,-2.386453360E-2,-6.117683290E0,-5.466201725E0,8.204022163E0
1.191217471E1,8.048373672E-1,-5.601085880E0,-5.069387451E0,7.597276838E0
1.192211071E1,1.680418150E0,-4.840128651E0,-4.575023494E0,6.868878401E0
1.193204571E1,2.328948626E0,-3.833200693E0,-4.439560172E0,6.310873456E0
1.194198171E1,2.455092363E0,-2.895563411E0,-6.512453377E0,7.538157266E0
1.195191671E1,2.714339486E0,-2.673612460E0,-9.224517127E0,9.980358644E0
1.196185271E1,3.226709067E0,-2.416114531E0,-1.049794597E1,1.124527147E1
1.197178771E1,3.448215044E0,-2.090629857E0,-1.088177124E1,1.160490696E1
1.198172371E1,3.390277616E0,-1.699904873E0,-1.093202689E1,1.157120870E1
1.199165871E1,3.036670465E0,-1.416064069E0,-1.067964820E1,1.119292145E1
1.200159371E1,2.621459974E0,-1.324828793E0,-1.038393930E1,1.079135854E1
1.201152971E1,2.285835643E0,-1.642800381E0,-9.946670480E0,1.033731548E1
1.202146471E1,2.084999865E0,-2.089258100E0,-9.210435863E0,9.671832951E0
1.203140071E1,1.937704410E0,-2.331633959E0,-8.241751034E0,8.781667006E0
1.204133571E1,1.825327357E0,-2.275089630E0,-7.213748542E0,7.781132360E0
1.205127171E1,1.698234031E0,-1.819420792E0,-6.242448839E0,6.720301954E0
1.206120671E1,1.469679236E0,-1.425083984E0,-5.478311309E0,5.848308833E0
1.207114271E1,1.230876317E0,-1.238957754E0,-4.978697137E0,5.276125283E0
1.208107771E1,7.308700892E-1,-1.035427287E0,-4.429252408E0,4.607011792E0
1.209101271E1,-8.317956626E-3,-4.470295769E-1,-2.915002479E0,2.949092078E0
1.210094871E1,-5.937053736E-1,2.140677345E-1,-7.855931573E-1,1.007704160E0
1.211088371E1,-5.272247243E-1,2.868965596E-1,9.358035958E-1,1.111757130E0
1.212081971E1,-3.681158468E-2,1.253023231E-1,1.936436879E0,1.940835787E0
1.213075471E1,3.757192737E-1,1.761298299E-2,2.062197770E0,2.096219176E0
1.214069071E1,4.119110535E-1,-4.776707411E-2,1.424347527E0,1.483481812E0
1.215062571E1,-1.153669535E-1,-1.581981736E-1,3.702348778E-1,4.188198429E-1
1.216056171E1,-1.078703626E0,-7.099426121E-1,-9.193752587E-2,1.294632200E0
1.217049671E1,-2.129861458E0,-1.416749362E0,4.310006046E-1,2.594079819E0
1.218043171E1,-2.761683222E0,-1.775522236E0,1.550871041E0,3.631056928E0
1.219036771E1,-2.843729598E0,-1.812022895E0,2.743745719E0,4.347225042E0
1.220030271E1,-2.308074943E0,-1.454967933E0,3.656986663E0,4.562641021E0
1.221023871E1,-1.163189680E0,-7.985869861E-1,4.025167122E0,4.265292694E0
1.222017371E1,-1.364659369E-1,-2.598660511E-1,3.807065978E0,3.818364136E0
1.223010971E1,3.461421931E-1,5.440249443E-2,3.432331960E0,3.450170537E0
1.224004471E1,1.821446414E-1,1.694289207E-2,3.201443540E0,3.206665632E0
1.224998071E1,-3.312613582E-1,-3.113659877E-1,3.032618637E0,3.066505937E0
1.225991571E1,-8.305548835E-1,-7.283496469E-1,2.664248144E0,2.884186678E0
1.226985071E1,-1.109833837E0,-9.597315717E-1,2.314679958E0,2.740539936E0
1.227978671E1,-1.292867620E0,-1.023234673E0,2.037424872E0,2.620995228E0
1.228972171E1,-1.557260878E0,-1.036787349E0,1.688219798E0,2.519935621E0
1.229965771E1,-1.626522025E0,-9.021575475E-1,1.376544492E0,2.313944009E0
1.230959271E1,-1.499937992E0,-8.366488516E-1,1.225931911E0,2.110143202E0
1.231952871E1,-9.961979514E-1,-8.183891666E-1,1.153157465E0,1.729723483E0
1.232946371E1,-5.180087450E-1,-6.271840453E-1,1.208404883E0,1.456686393E0
1.233939971E1,-1.216335973E-1,-4.998720342E-1,1.519007224E0,1.603761120E0
1.234933471E1,5.953855710E-1,-5.733721197E-1,3.157219879E0,3.263629411E0
1.235926971E1,2.301612015E0,-5.027453560E-1,6.529176414E0,6.941204176E0
1.236920571E1,-3.727302501E-1,-3.099451143E-1,2.284901258E0,2.335758457E0
1.237914071E1,2.072836487E-1,-1.133710796E-1,2.606204588E0,2.616891643E0
1.238907671E1,-7.562925404E-1,1.651253700E-1,1.189283903E0,1.419028187E0
1.239901171E1,-1.603863772E0,3.619350475E-1,2.222403878E-1,1.659146397E0
1.240894771E1,-1.741082282E0,4.811328775E-1,-3.445372421E-1,1.838902463E0
1.241888271E1,-1.748107419E0,4.233226258E-1,-5.603053468E-1,1.883885261E0
1.242881871E1,-1.746892806E0,1.991912484E-1,-5.264324266E-1,1.835331776E0
1.243875371E1,-1.608268479E0,-4.774602413E-2,-4.537281471E-1,1.671728571E0
1.244868871E1,-1.259441135E0,-2.071083784E-2,-4.947422719E-1,1.353288893E0
1.245862471E1,-7.965122478E-1,-2.064593375E-2,-7.142420697E-1,1.070046611E0
1.246855971E1,2.458018894E-1,-1.101217818E-1,-9.119522184E-1,9.508954855E-1
1.247849571E1,-3.324093128E-1,4.572440779E-1,-8.134652263E-1,9.906027319E-1
1.248843071E1,-1.124877261E0,5.323819685E-1,-2.344663310E-1,1.266394043E0
1.249836671E1,-7.292017324E-1,1.495232445E-1,4.392978036E-1,8.643349626E-1
1.250830171E1,-6.270099445E-1,2.395849836E-1,1.060137620E0,1.254764603E0
1.251823771E1,-6.165017670E-1,5.295946008E-1,1.324346398E0,1.553846277E0
1.252817271E1,-5.787248801E-1,5.346518576E-1,1.417807124E0,1.622021003E0
1.253810771E1,-4.936010416E-1,3.735043484E-1,1.304779276E0,1.444159425E0
1.254804371E1,-5.213441795E-1,2.470425224E-1,1.169761219E0,1.304289489E0
1.255797871E1,-5.798784627E-1,2.368373770E-1,9.158143044E-1,1.109534504E0
1.256791471E1,-5.593705232E-1,2.060178727E-1,4.584024113E-1,7.519784019E-1
1.257784971E1,-4.904040764E-1,2.392364895E-1,1.202152455E-1,5.587324595E-1
1.258778571E1,-3.612893687E-1,3.187422502E-1,1.807374358E-3,4.817986059E-1
1.259772071E1,-2.507060954E-1,2.942418319E-1,5.405283093E-2,3.903248781E-1
1.260765671E1,-2.820616432E-1,2.538621300E-1,1.956571913E-1,4.269502174E-1
1.261759171E1,-3.187045357E-1,2.112704265E-1,2.835507828E-1,4.760344742E-1
1.262752671E1,-3.120708695E-1,2.144027799E-1,3.347355545E-1,5.053757721E-1
1.263746271E1,-2.235533801E-1,2.671499276E-1,3.045329314E-1,4.626937474E-1
1.264739771E1,-1.002054888E-1,2.847488773E-1,1.849597102E-1,3.540242329E-1
1.265733371E1,-8.630007908E-2,3.157777119E-1,1.899175644E-3,3.273635194E-1
1.266726871E1,-1.571437745E-1,2.663009119E-1,-8.595114648E-2,3.209329231E-1
1.267720471E1,-2.097551206E-1,1.856321400E-1,-6.047716677E-2,2.865553868E-1
1.268713971E1,-2.048153928E-1,1.174576986E-1,-2.163177431E-2,2.370940525E-1
1.269707571E1,-2.740190904E-1,9.684567869E-2,-2.722639024E-2,2.919020790E-1
1.270701071E1,-3.500402029E-1,6.729969800E-2,-1.204210675E-1,3.762427760E-1
1.271694571E1,-3.533006103E-1,5.052579045E-3,-2.859943342E-1,4.545762962E-1
1.272688171E1,-1.743014055E-1,4.703207910E-2,-3.409768724E-1,3.858214924E-1
1.273681671E1,4.246803492E-2,1.378235507E-1,-3.647323555E-1,3.922098370E-1
1.274675271E1,1.373392551E-1,1.349572456E-1,-4.302235097E-1,4.713467910E-1
1.275668771E1,1.018615665E-1,1.236235875E-1,-3.882510263E-1,4.199969399E-1
1.276662371E1,-8.295868769E-2,5.540119886E-2,-3.218096995E-1,3.369167841E-1
1.277655871E1,-3.458816631E-1,3.047802687E-2,-2.202342081E-1,4.111765332E-1
1.278649471E1,-5.371908648E-1,2.164873123E-2,-5.482524812E-2,5.404151188E-1
1.279642971E1,-6.326020753E-1,5.872943401E-3,1.520065570E-1,6.506349749E-1
1.280636471E1,-6.000037019E-1,3.665911853E-2,3.134885269E-1,6.779553007E-1
1.281630071E1,-4.172511694E-1,1.554394573E-1,-6.859035391E-1,8.177552373E-1
1.282623571E1,1.137874013E-1,3.652843326E-1,-9.175591135E-1,9.941302446E-1
1.283617171E1,2.697493073E-1,4.592514271E-1,4.785197568E-1,7.160012009E-1
1.284610754E1,1.309581886E-1,3.436689305E-1,9.797156006E-1,1.046470754E0
1.285604354E1,7.701689333E-2,2.795869553E-1,1.174244864E0,1.209525307E0
1.286597854E1,4.613716274E-2,3.158864701E-1,1.399691280E0,1.435635253E0
1.287591454E1,-4.649252728E-2,3.119653273E-1,1.422140495E0,1.456697466E0
1.288584954E1,-2.788287176E-1,1.898281020E-1,9.173731720E-1,9.774219656E-1
1.289578454E1,-4.225065006E-1,1.114034915E-1,3.539904356E-2,4.383783449E-1