"Time (s)","Linear Acceleration x (m/s^2)","Linear Acceleration y (m/s^2)","Linear Acceleration z (m/s^2)","Absolute acceleration (m/s^2)"
7.964416669E-3,-5.490418553E-1,7.173410940E-1,-2.161869993E0,2.343012393E0
1.789941668E-2,-7.231139039E-1,6.138126326E-1,-1.759891459E0,1.999219251E0
2.783541667E-2,-7.159873174E-1,5.535746169E-1,-1.454572662E0,1.713144571E0
3.777041667E-2,-6.840587425E-1,5.214190239E-1,-1.284243270E0,1.545669737E0
4.770641669E-2,-6.866670392E-1,4.508899087E-1,-1.159686466E0,1.421156583E0
5.764141667E-2,-7.177520071E-1,3.862056702E-1,-1.165904980E0,1.422553052E0
6.757741669E-2,-6.351776277E-1,4.328910094E-1,-1.518071085E0,1.701583105E0
7.751241667E-2,-5.259987094E-1,2.706126487E-1,-1.775944989E0,1.871867103E0
8.744841669E-2,-4.367892019E-1,8.961267292E-2,-1.642223845E0,1.701679875E0
9.738341667E-2,-1.718552960E-1,2.177093804E-2,-1.201205791E0,1.213632386E0
1.073194167E-1,2.371868943E-1,-5.270709425E-2,-8.234756595E-1,8.585731316E-1
1.172544167E-1,7.919039109E-1,-1.405658948E-1,-3.772565067E-1,8.883653791E-1
1.271904167E-1,1.252943709E0,-3.224499696E-1,4.721802056E-2,1.294631786E0
1.371254167E-1,1.530318370E0,-4.528928724E-1,2.825637728E-1,1.620749380E0
1.470614167E-1,1.482630526E0,-3.952290934E-1,4.460712183E-1,1.597929549E0
1.569964167E-1,1.236274174E0,-1.439160571E-1,3.599089873E-1,1.295615739E0
1.669324167E-1,8.903623979E-1,2.540530416E-1,2.199781001E-2,9.261598410E-1
1.768674167E-1,4.995753976E-1,5.368457329E-1,-3.049246949E-1,7.942027376E-1
1.868034167E-1,-3.952410802E-2,3.620724571E-1,-5.566771495E-1,6.652428640E-1
1.967384167E-1,-3.664505598E-1,1.596038443E-1,-5.311341727E-1,6.647276956E-1
2.066744167E-1,-4.425456030E-1,7.169037223E-2,3.792036295E-2,4.499156300E-1
2.166094167E-1,-1.844298063E-1,3.196702033E-2,6.256818956E-1,6.530804532E-1
2.265454167E-1,3.143266522E-1,-4.494725436E-2,6.686694556E-1,7.402299243E-1
2.364804167E-1,6.459348965E-1,-1.794699056E-1,3.552294606E-1,7.587023838E-1
2.464164167E-1,5.903577330E-1,-1.164249341E-1,6.528006971E-2,6.052590401E-1
2.563510833E-1,1.417815675E-1,4.749256195E-1,-1.394683725E-1,5.148861854E-1
2.662870833E-1,-9.926660869E-2,6.127371834E-1,2.513659537E-2,6.212347092E-1
2.762220833E-1,1.203706352E-1,5.464389673E-1,3.038821363E-1,6.367330583E-1
2.861580834E-1,3.606422281E-1,7.936015038E-1,4.956345570E-1,1.002756091E0
2.960930833E-1,5.052497915E-1,8.975216556E-1,5.282672828E-1,1.157535657E0
3.060290834E-1,4.793416560E-1,9.422030079E-1,6.233260524E-1,1.227212410E0
3.159640833E-1,8.589749828E-2,7.828566603E-1,3.651609564E-1,8.680929990E-1
3.259000833E-1,3.118612468E-3,9.372067083E-1,4.019639164E-1,1.019775039E0
3.358350834E-1,-2.449690267E-1,1.234379238E0,5.680201632E-1,1.380705918E0
3.457710833E-1,3.780758478E-2,1.863366711E0,9.574400479E-1,2.095293859E0
3.557060834E-1,4.453608546E-1,2.580798436E0,1.115358725E0,2.846557912E0
3.656420833E-1,6.544162097E-1,2.999272259E0,1.012281083E0,3.232430610E0
3.755770834E-1,9.518498173E-1,3.099600831E0,1.001163772E0,3.393504426E0
3.855130833E-1,1.414182288E0,3.017757354E0,1.338872636E0,3.591566640E0
3.954480833E-1,1.722081316E0,2.915190175E0,2.136217673E0,4.003414013E0
4.053840833E-1,1.485536592E0,2.937703124E0,3.395363524E0,4.729208398E0
4.153190833E-1,1.206522956E0,2.866607414E0,4.593153956E0,5.547089234E0
4.252550833E-1,8.401742841E-1,2.445480125E0,5.128855973E0,5.743816629E0
4.351900833E-1,4.514641052E-1,1.651445635E0,4.862238142E0,5.154847454E0
4.451260833E-1,-3.214360625E-3,8.894394149E-1,4.017104396E0,4.114394310E0
4.550610833E-1,-3.261056489E-1,6.230057712E-1,3.574690027E0,3.643197754E0
4.649970834E-1,-2.359836835E-1,7.474753777E-1,3.476186662E0,3.563464810E0
4.749320833E-1,7.176200062E-2,3.694509854E-1,3.567070520E0,3.586869932E0
4.848680834E-1,3.972718182E-1,-5.732124176E-1,4.008141199E0,4.068364935E0
4.948030833E-1,4.073932023E-1,-1.658634787E0,4.372556636E0,4.694282705E0
5.047390833E-1,1.790587002E-1,-2.540290096E0,4.186185408E0,4.899926944E0
5.146740833E-1,-3.760256678E-2,-2.678134112E0,4.283359700E0,5.051830024E0
5.246100833E-1,3.579475388E-2,-2.685781685E0,4.863988214E0,5.556355449E0
5.345450834E-1,1.018386161E-1,-2.953175442E0,5.439242553E0,6.190070746E0
5.444810833E-1,2.534868850E-1,-3.294260488E0,6.554083214E0,7.339783003E0
5.544160834E-1,5.125543526E-1,-3.676359951E0,7.712571001E0,8.559327421E0
5.643520833E-1,1.471605601E0,-4.251417823E0,7.641327941E0,8.867359767E0
5.742870833E-1,1.447401782E0,-4.676513616E0,7.203455104E0,8.709449865E0
5.842230833E-1,6.315038221E-1,-6.110936773E0,6.755575926E0,9.131273264E0
5.941580833E-1,7.663463160E-1,-7.435220021E0,5.980120525E0,9.572440908E0
6.040940833E-1,5.323154564E-1,-7.532690182E0,6.161635056E0,9.746308414E0
6.140290833E-1,5.607191835E-1,-7.521389853E0,6.632356381E0,1.004359809E1
6.239650833E-1,8.953439333E-1,-7.894710599E0,7.106021195E0,1.065943870E1
6.339000833E-1,1.112258531E0,-8.714505436E0,7.052005202E0,1.126545611E1
6.438360834E-1,1.431151639E0,-9.560750738E0,6.022925068E0,1.138998578E1
6.537710833E-1,2.130075173E0,-9.960395064E0,4.545120834E0,1.115369058E1
6.637070834E-1,2.815239332E0,-9.655134739E0,2.866464742E0,1.045771579E1
6.736420833E-1,2.973044865E0,-8.862721244E0,1.406194553E0,9.453264343E0
6.835780833E-1,2.649147710E0,-8.317991125E0,1.215250218E-1,8.730505614E0
6.935130833E-1,1.264544877E0,-7.898208988E0,-2.199261183E0,8.295633112E0
7.034490833E-1,6.484127272E-2,-7.366685391E0,-2.232461674E0,7.697801190E0
7.133840834E-1,-2.155157974E-1,-6.964782870E0,-1.125100771E0,7.058363779E0
7.233200833E-1,7.197191566E-3,-7.169254739E0,-2.533306181E-2,7.169303110E0
7.332550834E-1,6.798502091E-1,-7.716517872E0,4.727573258E-1,7.760821081E0
7.431910833E-1,1.451223669E0,-7.711219125E0,2.093861613E-1,7.849381701E0
7.531260833E-1,1.590846262E0,-7.513500790E0,-6.423347658E-1,7.706885227E0
7.630620833E-1,1.237085475E0,-7.349502763E0,-1.603425230E0,7.623420742E0
7.729970833E-1,3.406553487E-1,-7.240522358E0,-2.478963329E0,7.660709449E0
7.829330833E-1,-2.518426845E-1,-7.193068694E0,-3.266464579E0,7.904014981E0
7.928680833E-1,-6.819845159E-1,-6.666352093E0,-3.870067973E0,7.738396425E0
8.028040833E-1,-9.347857417E-1,-6.137174399E0,-3.877393364E0,7.319351972E0
8.127390833E-1,-7.208329050E-1,-6.076910071E0,-3.495608481E0,7.047532529E0
8.226750834E-1,-4.933423754E-1,-6.104193179E0,-2.944544951E0,6.795211993E0
8.326100833E-1,1.702720892E-1,-5.897881776E0,-2.370147815E0,6.358584960E0
8.425460834E-1,9.806584641E-1,-5.370394512E0,-1.750721417E0,5.733049251E0
8.524810833E-1,1.393182013E0,-4.868516298E0,-1.928477650E0,5.418711388E0
8.624170834E-1,1.415282296E0,-4.640522250E0,-2.427255231E0,5.424853794E0
8.723520833E-1,1.217517330E0,-4.753969343E0,-2.439540962E0,5.480322351E0
8.822880833E-1,8.729324327E-1,-4.979543813E0,-2.781481894E0,5.770139439E0
8.922230834E-1,1.069513630E0,-4.923960181E0,-3.339975774E0,6.045219718E0
9.021590833E-1,1.514717706E0,-4.246134571E0,-3.971814203E0,6.008272346E0
9.120940834E-1,2.054014446E0,-2.988749902E0,-5.251769709E0,6.382216417E0
9.220300833E-1,2.638720662E0,-1.836503432E0,-6.607213939E0,7.347847823E0
9.319650833E-1,2.836567343E0,-1.224956011E0,-7.346641721E0,7.969929491E0
9.419010833E-1,2.779549974E0,-1.154834447E0,-7.694674428E0,8.262418242E0
9.518360833E-1,2.608331513E0,-1.329592520E0,-7.547127542E0,8.095081451E0
9.617720833E-1,2.732965499E0,-1.309956985E0,-7.130022846E0,7.747406889E0
9.717070833E-1,2.730424592E0,-9.846120590E-1,-6.748493779E0,7.346213150E0
9.816430833E-1,2.946993765E0,-8.822390074E-1,-6.597541475E0,7.279469172E0
9.915780833E-1,3.340072545E0,-5.012665951E-1,-7.028299420E0,7.797714123E0
1.001514083E0,3.595005885E0,1.808327454E-1,-7.957398013E0,8.733667668E0
1.011449083E0,3.678028454E0,7.478273070E-1,-8.993533398E0,9.745295376E0
1.021385083E0,3.539067035E0,1.089657288E0,-9.890174682E0,1.056067724E1
1.031320083E0,3.281441929E0,1.083679095E0,-1.037699515E1,1.093728713E1
1.041256083E0,3.091420577E0,7.901979858E-1,-1.004505573E1,1.053966027E1
1.051191083E0,3.122606117E0,7.459977132E-1,-9.181088687E0,9.726231080E0
1.061127083E0,3.499077927E0,1.139863821E0,-8.247604097E0,9.031379142E0
1.071062083E0,3.888684922E0,1.722635924E0,-7.521947678E0,8.641125032E0
1.080998083E0,4.298289980E0,2.135827664E0,-6.997416766E0,8.485334287E0
1.090933083E0,4.685556335E0,1.983559152E0,-6.539668073E0,8.285903909E0
1.100869083E0,4.401552978E0,1.293646177E0,-6.315584643E0,7.806010404E0
1.110804083E0,3.954259107E0,2.518109268E-1,-6.028251296E0,7.213833067E0
1.120740083E0,3.879636356E0,-7.434799021E-1,-5.471147885E0,6.748170107E0
1.130675083E0,4.341859923E0,-1.570086161E0,-4.511408712E0,6.455209269E0
1.140611083E0,4.910685248E0,-1.917879425E0,-2.155363212E0,5.695496613E0
1.150546083E0,4.571220465E0,-1.951633939E0,1.511438588E0,5.195130237E0
1.160482083E0,3.723332096E0,-2.781297122E0,3.509801136E0,5.823874963E0
1.170417083E0,2.811800292E0,-3.600664236E0,3.398221058E0,5.693760636E0
1.180353083E0,2.090195116E0,-4.038158466E0,2.487994353E0,5.183218625E0
1.190288083E0,1.765446167E0,-4.168507813E0,1.726223776E0,4.844905167E0
1.200224083E0,1.167902682E0,-3.947918386E0,1.934118020E0,4.548721664E0
1.210159083E0,3.322253448E-1,-3.962610393E0,2.566435921E0,4.732784396E0
1.220095083E0,-1.647381382E-1,-4.412627605E0,3.689101911E0,5.753945945E0
1.230030083E0,-7.176528968E-1,-4.550236562E0,5.423949160E0,7.116101668E0
1.239966083E0,-1.298128653E0,-4.297018211E0,7.952393382E0,9.131816030E0
1.249901083E0,-1.914181938E0,-3.781378283E0,1.048944997E1,1.131333173E1
1.259837042E0,-2.324928957E0,-3.154428418E0,1.245555518E1,1.305743344E1
1.269772042E0,-2.390352868E0,-2.729962662E0,1.332858073E1,1.381367247E1
1.279708042E0,-2.238427588E0,-2.422732410E0,1.345805095E1,1.385638213E1
1.289643042E0,-1.906196396E0,-2.875337307E0,1.290792970E1,1.336098044E1
1.299579042E0,-1.604440599E0,-3.927796948E0,1.155684632E1,1.231107288E1
1.309514042E0,-1.261006435E0,-4.872441534E0,1.018801548E1,1.136338343E1
1.319450042E0,-9.075033644E-1,-5.185203837E0,9.439012293E0,1.080762945E1
1.329385042E0,-4.872446796E-1,-5.033082089E0,9.402600512E0,1.067605822E1
1.339321042E0,2.693467265E-1,-4.636365464E0,9.990006534E0,1.101674466E1
1.349256042E0,9.578531536E-1,-4.265839103E0,1.070851473E1,1.156663969E1
1.359192042E0,1.478677808E0,-4.451792840E0,1.097224404E1,1.193294125E1
1.369127042E0,2.041736609E0,-5.145200695E0,1.126648412E1,1.255290576E1
1.379063042E0,2.613797490E0,-5.940658252E0,1.203852240E1,1.367659970E1
1.388998042E0,3.682510637E0,-7.002968697E0,1.287319490E1,1.511031442E1
1.398934042E0,4.881163533E0,-8.614833798E0,1.296444888E1,1.631312520E1
1.408869042E0,6.910640577E0,-1.050129876E1,1.282266560E1,1.795703155E1
1.418805042E0,8.427486670E0,-1.235178698E1,1.206152301E1,1.921118192E1
1.428740042E0,8.578774604E0,-1.451125962E1,1.074180410E1,1.998895657E1
1.438676042E0,7.622886992E0,-1.623534390E1,8.815692088E0,1.998527519E1
1.448611042E0,5.989595938E0,-1.688225411E1,6.235356166E0,1.896748349E1
1.458547042E0,4.074084928E0,-1.671576400E1,3.424645211E0,1.754260895E1
1.468482042E0,1.876103408E0,-1.596719760E1,6.295732176E-1,1.608936064E1
1.478418042E0,-1.045114515E-1,-1.455287776E1,-1.848486131E0,1.467017637E1
1.488353042E0,-1.226865712E0,-1.331753534E1,-3.898241612E0,1.393047862E1
1.498289042E0,1.664882464E-1,-1.338799312E1,-4.699194674E0,1.418973251E1
1.508224042E0,1.184032080E0,-1.183995915E1,-4.379763914E0,1.267946752E1
1.518160042E0,1.317206655E0,-9.538084007E0,-3.983595757E0,1.042013028E1
1.528095042E0,1.990566894E0,-8.966026926E0,-3.776906040E0,9.930609983E0
1.538031042E0,2.486972552E0,-9.123480164E0,-4.188395363E0,1.034241647E1
1.547966042E0,2.227891198E0,-8.621610721E0,-4.584616729E0,1.001570672E1
1.557902042E0,1.507780277E0,-8.301376262E0,-4.180941040E0,9.416289990E0
1.567837042E0,5.012093290E-1,-8.562165003E0,-3.611267284E0,9.306080364E0
1.577773042E0,-4.361253237E-1,-8.687655607E0,-3.641376936E0,9.430015442E0
1.587708042E0,-9.931174189E-1,-8.381041651E0,-4.711912075E0,9.665932794E0
1.597644042E0,-1.280625013E0,-7.933096985E0,-5.956200151E0,1.000251711E1
1.607579042E0,-1.217784328E0,-7.341479214E0,-5.725021124E0,9.389152389E0
1.617515042E0,-7.390518788E-1,-6.830682242E0,-4.415833048E0,8.167251623E0
1.627450042E0,-6.345347994E-1,-6.511101501E0,-3.138474875E0,7.255832255E0
1.637386042E0,-7.183416988E-1,-6.487070614E0,-2.212993954E0,6.891693710E0
1.647321042E0,-8.912925437E-1,-6.459562388E0,-1.735597447E0,6.747788315E0
1.657257042E0,-1.018345669E0,-6.269734871E0,-1.960160934E0,6.647468250E0
1.667192042E0,-1.039816791E0,-6.110790008E0,-2.421890996E0,6.654962770E0
1.677128042E0,-5.853105260E-1,-6.093072360E0,-2.662107478E0,6.674948346E0
1.687063042E0,4.671650487E-1,-5.510697867E0,-2.660590711E0,6.137163603E0
1.696999042E0,1.453303231E0,-4.597264549E0,-2.559922707E0,5.458950071E0
1.706934042E0,1.892539347E0,-3.735882559E0,-2.789491410E0,5.031876986E0
1.716870042E0,2.002964599E0,-2.715735217E0,-3.864987327E0,5.130810071E0
1.726805042E0,1.809625244E0,-1.925407423E0,-4.979902833E0,5.637496740E0
1.736741042E0,2.002562310E0,-1.695559223E0,-5.415141499E0,6.017386006E0
1.746676042E0,2.024729105E0,-1.454136459E0,-5.456198308E0,5.998678252E0
1.756612042E0,2.000422229E0,-1.551639950E0,-5.098307780E0,5.692277036E0
1.766547042E0,1.805174051E0,-1.891908724E0,-4.155821986E0,4.910074170E0
1.776483042E0,2.115254821E0,-2.013216814E0,-3.486562546E0,4.547907573E0
1.786418042E0,3.090439999E0,-7.295097345E-1,-4.096554608E0,5.183122948E0
1.796354042E0,3.826361205E0,8.788435292E-1,-5.435955248E0,6.705446702E0
1.806289042E0,4.027613012E0,1.224624474E0,-6.871261919E0,8.058263587E0
1.816225042E0,3.386472833E0,9.656015915E-1,-8.004082768E0,8.744479724E0
1.826160042E0,2.969973323E0,4.978985989E-1,-8.768109201E0,9.270835104E0
1.836096042E0,3.460180494E0,5.209126550E-1,-9.505849476E0,1.012943105E1
1.846031042E0,4.055316535E0,8.546810800E-1,-9.908837825E0,1.074063029E1
1.855967042E0,4.608580665E0,8.259466928E-1,-9.606297625E0,1.068654096E1
1.865902042E0,4.990668726E0,7.425250518E-1,-8.922741743E0,1.025053355E1
1.875838042E0,5.063991641E0,5.598147655E-1,-8.411697434E0,9.834330563E0
1.885773042E0,4.555914794E0,9.949563682E-2,-8.119682221E0,9.311041744E0
1.895709042E0,3.944401871E0,-6.460442394E-1,-7.922405351E0,8.873566692E0
1.905644042E0,3.188515347E0,-1.256762525E0,-7.731299633E0,8.456895185E0
1.915580042E0,2.668380956E0,-1.608849108E0,-7.713906505E0,8.319435434E0
1.925515042E0,2.702193650E0,-1.752242716E0,-7.836895670E0,8.472847148E0
1.935451042E0,2.894330233E0,-1.728839235E0,-8.089990060E0,8.764358035E0
1.945386042E0,3.187028984E0,-2.067038096E0,-8.371595474E0,9.193117590E0
1.955322042E0,3.705733731E0,-3.111440274E0,-8.127612800E0,9.458943540E0
1.965257042E0,4.379239126E0,-4.518110790E0,-6.830668209E0,9.287038743E0
1.975193042E0,5.048306485E0,-5.510489706E0,-4.011133804E0,8.481750383E0
1.985128042E0,5.000444101E0,-5.075486682E0,-6.285920548E-1,7.152631281E0
1.995064042E0,4.615210823E0,-4.611997778E0,1.979245661E0,6.818218816E0
2.004999042E0,3.461755734E0,-5.237991915E0,3.919965187E0,7.401786212E0
2.014935042E0,1.921539490E0,-6.123607689E0,4.615635331E0,7.905376313E0
2.024870042E0,5.870206904E-1,-6.485590099E0,3.581840587E0,7.432163495E0
2.034806042E0,-5.091419175E-1,-6.240519258E0,2.087081766E0,6.599940636E0
2.044741042E0,-1.060783445E0,-6.022195335E0,9.744759107E-1,6.192067625E0
2.054677042E0,-8.736216733E-1,-5.865001713E0,6.914478689E-1,5.969887778E0
2.064612042E0,-6.871896341E-1,-5.478166298E0,1.446249150E0,5.707378749E0
2.074548042E0,-6.186979812E-1,-5.207161885E0,2.979858626E0,6.031324856E0
2.084483042E0,-4.074655616E-1,-4.976321998E0,4.877611642E0,6.980036113E0
2.094419042E0,-4.531194520E-1,-4.722963021E0,6.662698753E0,8.179440788E0
2.104354042E0,-5.425555390E-1,-4.463372081E0,8.515687825E0,9.629797297E0
2.114290042E0,-7.565814659E-1,-4.308463843E0,1.027432272E1,1.116678036E1
2.124225042E0,-1.205421048E0,-4.021464665E0,1.227705372E1,1.297502470E1
2.134161042E0,-1.437947566E0,-3.893636929E0,1.438923758E1,1.497592267E1
2.144096042E0,-1.133291258E0,-4.293457841E0,1.562465485E1,1.624339769E1
2.154032042E0,-1.017919846E0,-4.714504438E0,1.563671298E1,1.636366419E1
2.163967042E0,-1.427725171E0,-5.402903277E0,1.534909312E1,1.633476117E1
2.173903042E0,-1.504516654E0,-6.034207270E0,1.467231766E1,1.593587567E1
2.183838042E0,-9.717300582E-1,-6.787751985E0,1.364059167E1,1.526707494E1
2.193774042E0,-5.401456091E-1,-7.606304289E0,1.232146098E1,1.449020438E1
2.203709042E0,2.557192057E-2,-8.135148692E0,1.098589612E1,1.367008455E1
2.213645042E0,8.426928261E-1,-8.247347404E0,1.037996202E1,1.328429456E1
2.223580042E0,1.945662470E0,-8.083002638E0,1.015267373E1,1.312239757E1
2.233516042E0,3.194016992E0,-7.922323490E0,9.723420278E0,1.294255987E1
2.243451042E0,4.388183027E0,-7.894469694E0,9.029052894E0,1.277116276E1
2.253387042E0,5.333341876E0,-7.890368457E0,8.404689546E0,1.270201780E1
2.263322167E0,5.726546078E0,-8.056175612E0,8.111972668E0,1.278668824E1
2.273258167E0,5.488172638E0,-8.666649485E0,8.053908062E0,1.304209674E1
2.283193167E0,4.974865456E0,-9.528386984E0,7.678136748E0,1.320958852E1
2.293129167E0,4.314806610E0,-1.051009649E1,6.314940280E0,1.299839048E1
2.303064167E0,3.499658263E0,-1.153977479E1,4.187771757E0,1.276524353E1
2.313000167E0,2.647090367E0,-1.202661864E1,2.135249375E0,1.249823721E1
2.322935167E0,2.185849863E0,-1.168625690E1,6.318518776E-1,1.190570354E1
2.332871167E0,1.889075017E0,-1.076529821E1,-4.412975514E-1,1.093869250E1
2.342806167E0,1.856900129E0,-9.924357505E0,-1.162772042E0,1.016331584E1
2.352742167E0,2.117926121E0,-9.436944718E0,-1.445231735E0,9.779071092E0
2.362677167E0,2.419760855E0,-9.085362166E0,-1.450889793E0,9.513365833E0
2.372613167E0,2.778465608E0,-8.774752223E0,-1.309827762E0,9.296870252E0
2.382548167E0,2.928022182E0,-8.543370298E0,-1.043056441E0,9.091229658E0
2.392484167E0,2.762479320E0,-8.604815764E0,-9.155830470E-1,9.083635761E0
2.402419167E0,1.971489914E0,-9.076062754E0,-1.560218107E0,9.417853690E0
2.412355167E0,1.113737511E0,-9.310980490E0,-2.728935306E0,9.766363542E0
2.422290167E0,4.745983947E-1,-8.986176431E0,-3.512933489E0,9.660088622E0
2.432226167E0,1.093556321E-1,-8.557080849E0,-3.991294494E0,9.442776237E0
2.442161167E0,5.477353681E-2,-8.412287418E0,-3.958704745E0,9.297361077E0
2.452097167E0,3.607955348E-1,-8.424315140E0,-3.076803707E0,8.975855394E0
2.462032167E0,2.869340731E-1,-8.378987525E0,-2.744989421E0,8.821832577E0
2.471968167E0,3.717841341E-1,-8.262361885E0,-2.763727409E0,8.720265853E0
2.481903167E0,4.533636463E-1,-8.115206763E0,-2.616389269E0,8.538595447E0
2.491839167E0,9.604468323E-2,-7.802971879E0,-3.214693916E0,8.439777941E0
2.501774167E0,1.522516284E-1,-7.271951727E0,-3.726637527E0,8.172654999E0
2.511710167E0,5.112337589E-2,-6.577679653E0,-4.251360812E0,7.832148618E0
2.521645167E0,3.415636405E-2,-5.840566784E0,-4.932291294E0,7.644663787E0
2.531581167E0,-2.389697103E-1,-5.433082511E0,-5.040406312E0,7.414930066E0
2.541516167E0,-7.615165159E-1,-5.529233540E0,-4.918184302E0,7.439144290E0
2.551452167E0,-9.650238866E-1,-5.618733362E0,-4.434704937E0,7.222744878E0
2.561387167E0,-8.679302859E-1,-5.705007275E0,-3.081048493E0,6.541656579E0
2.571323167E0,-8.760272178E-1,-6.011320099E0,-1.491492566E0,6.255233256E0
2.581258167E0,-9.336050427E-1,-6.170544459E0,-5.785086063E-1,6.267528181E0
2.591194167E0,-4.221844652E-1,-6.015124297E0,-3.046468060E-1,6.037612915E0
2.601129167E0,4.759808958E-1,-4.735869287E0,-1.017300041E0,4.867228687E0
2.611065167E0,1.107266763E0,-2.828403461E0,-3.086170946E0,4.330168234E0
2.621000167E0,1.749249819E0,-1.743925052E0,-5.441235284E0,5.975633098E0
2.630936167E0,1.922430605E0,-1.375469189E0,-6.661120005E0,7.068109693E0
2.640871167E0,1.871510128E0,-1.609285310E0,-6.863025531E0,7.293385277E0
2.650807167E0,2.020601848E0,-1.695247566E0,-6.903515160E0,7.390210938E0
2.660742167E0,2.156226845E0,-1.700131161E0,-6.576061728E0,7.126313775E0
2.670678167E0,2.101374115E0,-2.057615892E0,-5.747989572E0,6.456697333E0
2.680613167E0,1.990864663E0,-2.328804492E0,-5.203062987E0,6.038107064E0
2.690549167E0,2.537652417E0,-1.276928988E0,-5.625063558E0,6.301711470E0
2.700484167E0,3.514126321E0,7.408667815E-1,-6.949139814E0,7.822308582E0
2.710420167E0,4.618715059E0,2.144926516E0,-8.084738091E0,9.554905994E0
2.720355167E0,5.318753073E0,2.344724706E0,-9.072039285E0,1.077444964E1
2.730291167E0,5.429548454E0,2.170831436E0,-1.034673347E1,1.188475490E1
2.740226167E0,5.046208504E0,1.663953268E0,-1.078049279E1,1.201881797E1
2.750162167E0,4.071686985E0,2.664798367E-1,-9.758907614E0,1.057761430E1
2.760097167E0,3.459808611E0,-1.006747863E0,-8.339283761E0,9.084463139E0
2.770033167E0,2.939840866E0,-1.843600783E0,-7.261177062E0,8.047746299E0
2.779968167E0,2.134864043E0,-2.358447536E0,-6.526828172E0,7.260812988E0
2.789904167E0,1.762092935E0,-2.263483492E0,-5.999813948E0,6.650270403E0
2.799839167E0,1.848770306E0,-1.697964182E0,-5.813531013E0,6.332312125E0
2.809775167E0,2.045957714E0,-1.121295403E0,-5.950200323E0,6.391254198E0
2.819710167E0,2.337979943E0,-8.366628850E-1,-6.088988664E0,6.575860244E0
2.829646167E0,2.962073734E0,-9.148986304E-1,-5.859596547E0,6.629162240E0
2.839581167E0,3.939469160E0,-1.339507059E0,-4.627050850E0,6.222804512E0
2.849517167E0,4.800141297E0,-1.616865056E0,-2.715182655E0,5.746984072E0
2.859452167E0,5.050258870E0,-1.764813645E0,-8.887697625E-1,5.423061271E0
2.869388167E0,4.674194903E0,-2.309891673E0,5.056637013E-1,5.238262432E0
2.879323167E0,4.149758716E0,-3.138816937E0,1.341910264E0,5.373396721E0
2.889259167E0,2.945157155E0,-3.875429285E0,2.294549748E0,5.381250910E0
2.899194167E0,1.346222001E0,-4.132675491E0,3.301656631E0,5.458228366E0
2.909130167E0,2.912878186E-1,-3.853522106E0,3.471074442E0,5.194500842E0
2.919065167E0,-2.385012022E-1,-3.578488963E0,2.641476747E0,4.454196391E0
2.929001167E0,-1.870986217E-1,-3.351881289E0,1.405118081E0,3.639295384E0
2.938936167E0,2.434929702E-1,-2.878634552E0,4.292733371E-1,2.920633717E0
2.948872167E0,4.869859403E-1,-2.524172246E0,2.724708939E-1,2.585119189E0
2.958807167E0,5.737510192E-1,-2.610424524E0,1.202056561E0,2.930605126E0
2.968743167E0,2.891664487E-1,-2.692664150E0,3.251909689E0,4.231899584E0
2.978678167E0,-3.698644567E-1,-2.445391540E0,6.312250561E0,6.779472445E0
2.988614167E0,-7.973386055E-1,-1.958591833E0,9.812654636E0,1.003792916E1
2.998549167E0,-6.959499326E-1,-1.423791164E0,1.233426171E1,1.243565597E1
3.008485167E0,-3.492044896E-1,-1.372026933E0,1.312103966E1,1.319719983E1
3.018420167E0,-3.051270086E-1,-1.661422593E0,1.280445620E1,1.291539880E1
3.028356167E0,-5.576969039E-1,-1.805724274E0,1.185455146E1,1.200425159E1
3.038291167E0,-4.198800775E-1,-2.252864363E0,1.065685341E1,1.090046888E1
3.048227167E0,-6.323892367E-1,-2.854350480E0,8.660528035E0,9.140677144E0
3.058162167E0,-1.254470417E0,-2.906571379E0,6.158281093E0,6.924325182E0
3.068098167E0,-3.284746483E-1,-3.237333165E0,5.602525465E0,6.478928399E0
3.078033167E0,1.794268117E0,-4.069527608E0,6.976753290E0,8.273786286E0
3.087969167E0,2.364739725E0,-4.571159947E0,8.392370632E0,9.844764194E0
3.097904167E0,1.908069551E0,-4.846073515E0,9.659446476E0,1.097406325E1
3.107840167E0,1.825373842E0,-5.308656685E0,1.078743460E1,1.216069779E1
3.117775167E0,2.508426279E0,-6.030129422E0,1.141555771E1,1.315179155E1
3.127711167E0,2.920574291E0,-6.721434034E0,1.130549557E1,1.347299743E1
3.137646167E0,2.987990348E0,-7.092509449E0,1.067569665E1,1.316063355E1
3.147582167E0,3.092214628E0,-7.170380913E0,1.001778432E1,1.270165959E1
3.157517167E0,3.259701689E0,-7.437953010E0,9.128124608E0,1.221766995E1
3.167453167E0,3.277886530E0,-7.785431986E0,8.171870960E0,1.175316835E1
3.177388167E0,3.082344528E0,-7.992490663E0,7.284174746E0,1.124455230E1
3.187324167E0,2.880838367E0,-8.243230380E0,6.125404539E0,1.066633290E1
3.197259167E0,2.999678932E0,-8.280639111E0,5.030218708E0,1.014249269E1
3.207195167E0,2.884653676E0,-8.364339665E0,4.450159128E0,9.903904337E0
3.217130167E0,2.506377414E0,-8.623146200E0,3.838414655E0,9.765961560E0
3.227066167E0,2.348688241E0,-8.874366558E0,2.829760015E0,9.606157401E0
3.237001167E0,2.536390295E0,-8.839720051E0,1.846006912E0,9.379854361E0
3.246937167E0,2.670969518E0,-8.550023260E0,9.143010449E-1,9.004050328E0
3.256872167E0,2.489231916E0,-8.200942147E0,-2.936588645E-2,8.570448645E0
3.266807708E0,2.048012718E0,-8.012026795E0,-5.049734375E-1,8.285042404E0
3.276742708E0,1.366176794E0,-7.921434129E0,-9.998534113E-1,8.100324965E0
3.286678708E0,8.450377057E-1,-7.996778426E0,-1.436390160E0,8.168584370E0
3.296614708E0,7.336619885E-1,-8.052886553E0,-1.739472397E0,8.271215508E0
3.306549708E0,7.244149093E-1,-7.961729046E0,-1.839369738E0,8.203486295E0
3.316484708E0,6.732614203E-1,-7.925148865E0,-2.046928644E0,8.212866877E0
3.326420708E0,4.408710701E-1,-7.801690754E0,-2.320225165E0,8.151330611E0
3.336355708E0,1.855938408E-1,-7.541802483E0,-2.409073460E0,7.919398002E0
3.346291708E0,-8.367269668E-2,-7.493900923E0,-2.377345883E0,7.862399482E0
3.356227708E0,-1.385972835E-1,-7.777460477E0,-1.987826888E0,8.028670900E0
3.366162708E0,-3.190887708E-1,-7.954779630E0,-1.582765848E0,8.116987393E0
3.376097708E0,-1.242653560E-1,-7.943696818E0,-1.380394884E0,8.063699588E0
3.386033708E0,2.818533361E-1,-7.718776651E0,-1.160883976E0,7.810672564E0
3.395969708E0,4.644289903E-1,-7.354752393E0,-1.097534657E0,7.450681806E0
3.405904708E0,4.697186740E-1,-6.846791906E0,-1.560529472E0,7.038071275E0
3.415839708E0,5.947676665E-1,-6.241143156E0,-2.410307661E0,6.716784907E0
3.425775708E0,5.329720987E-1,-5.793627675E0,-3.130515060E0,6.606837779E0
3.435711708E0,2.763151458E-1,-5.607887946E0,-3.532995286E0,6.633763108E0
3.445646708E0,-1.658080325E-2,-5.433247987E0,-3.487042018E0,6.455998811E0
3.455582708E0,-3.408546656E-1,-5.395535200E0,-3.446441292E0,6.411391392E0
3.465517708E0,-5.408320722E-1,-5.489939082E0,-3.482567729E0,6.523818547E0
3.475453708E0,-2.954928437E-1,-5.419502352E0,-3.446851766E0,6.429549663E0
3.485388708E0,2.211510515E-1,-5.021036825E0,-3.265989200E0,5.993863866E0
3.495323708E0,5.923144671E-1,-4.489284602E0,-3.154469934E0,5.518622403E0
3.505259708E0,6.166219273E-1,-3.972893014E0,-3.267456559E0,5.180769621E0
3.515195708E0,4.564532420E-1,-3.904470066E0,-3.361027504E0,5.172015269E0
3.525130708E0,5.443243217E-1,-4.064651615E0,-3.444448560E0,5.355549235E0
3.535066708E0,9.452500650E-1,-3.855469814E0,-3.627623116E0,5.377526815E0
3.545001708E0,1.561049289E0,-3.265594513E0,-4.004832845E0,5.398117127E0
3.554937708E0,2.090028178E0,-2.685457749E0,-4.759481514E0,5.850860226E0
3.564872708E0,2.645046473E0,-1.935934165E0,-5.785182542E0,6.649244241E0
3.574808708E0,3.136892619E0,-1.228923347E0,-6.809432291E0,7.597283463E0
3.584743708E0,3.263310006E0,-8.826740402E-1,-7.908684275E0,8.600906500E0
3.594679708E0,3.150423660E0,-6.923366457E-1,-8.793573825E0,9.366506280E0
3.604614708E0,3.196985039E0,-5.893016893E-1,-9.017358463E0,9.585444354E0
3.614550708E0,3.609319577E0,-6.129519224E-1,-8.539387175E0,9.291072661E0
3.624485708E0,3.914205095E0,-6.116263586E-1,-7.805193236E0,8.753064022E0
3.634421708E0,4.233700467E0,-5.746286863E-1,-7.105546986E0,8.291152859E0
3.644356708E0,4.651957650E0,-3.864366353E-1,-6.664164650E0,8.136407913E0
3.654292708E0,4.977877357E0,3.760812163E-2,-6.484424164E0,8.174865999E0
3.664227708E0,5.050336638E0,5.825715441E-1,-6.534490364E0,8.279181969E0
3.674163708E0,5.046193886E0,7.110728788E-1,-6.818012495E0,8.512049797E0
3.684098708E0,5.194855251E0,1.129684403E0,-7.270768835E0,9.007040989E0
3.694034708E0,5.252873079E0,1.605360659E0,-7.693995566E0,9.453434625E0
3.703969708E0,5.420801019E0,1.637075956E0,-7.677182482E0,9.539613841E0
3.713905708E0,5.632297733E0,1.492829239E0,-6.996237967E0,9.104870267E0
3.723840708E0,5.563745561E0,1.241273251E0,-6.007386092E0,8.281588713E0
3.733776708E0,5.010814138E0,5.083154136E-1,-4.792168618E0,6.952087669E0
3.743711708E0,4.377716219E0,-4.771912694E-1,-3.638174416E0,5.712129540E0
3.753647708E0,3.919956416E0,-1.242516954E0,-2.215882478E0,4.671192765E0
3.763582708E0,3.267094324E0,-1.519414190E0,-6.181647152E-1,3.655769743E0
3.773518708E0,2.303118843E0,-1.696929810E0,2.067248011E-1,2.868215879E0
3.783453708E0,1.463551646E0,-2.076998243E0,-5.504334927E-2,2.541443466E0
3.793389708E0,8.080945587E-1,-2.578438793E0,-8.772846615E-1,2.840949102E0
3.803324708E0,3.920090318E-1,-3.143259067E0,-1.184701440E0,3.381902740E0
3.813260708E0,5.543148744E-1,-3.379419336E0,-3.620584238E-1,3.443664666E0
3.823195708E0,8.876178610E-1,-2.929675482E0,1.447023321E0,3.385962255E0
3.833131708E0,1.188598609E0,-2.581652715E0,3.028325611E0,4.153125739E0
3.843066708E0,1.361401958E0,-2.628759638E0,4.230328962E0,5.163281481E0
3.853002708E0,1.039527354E0,-2.760288953E0,5.133891596E0,5.920866080E0
3.862937708E0,3.864687949E-1,-3.003076749E0,5.478347561E0,6.259402535E0
3.872873708E0,-3.230197808E-1,-3.105523476E0,5.689758321E0,6.490143881E0
3.882808708E0,-1.302681879E0,-3.120467205E0,5.803852701E0,6.717067949E0
3.892744708E0,-1.962298968E0,-3.230215350E0,5.514751157E0,6.685610575E0
3.902679708E0,-2.029698654E0,-3.136157916E0,5.487427118E0,6.638299441E0
3.912615708E0,-1.904136422E0,-3.021490509E0,6.364903568E0,7.298433930E0
3.922550708E0,-1.770484567E0,-2.853048013E0,7.861486135E0,8.548535712E0
3.932486708E0,-1.653577676E0,-2.538660184E0,9.654348873E0,1.011857534E1
3.942421708E0,-1.322227660E0,-2.597781090E0,1.112635442E1,1.150184834E1
3.952357708E0,-3.079012200E-1,-3.152077253E0,1.202016799E1,1.243039954E1
3.962292708E0,6.031005335E-1,-3.643973100E0,1.224803165E1,1.279283196E1
3.972228708E0,9.906297210E-1,-3.965512074E0,1.145383358E1,1.216128846E1
3.982163708E0,1.444019314E0,-4.398339056E0,1.030600527E1,1.129797871E1
3.992099708E0,1.855318895E0,-4.733229854E0,9.620797550E0,1.088142539E1
4.002034708E0,2.018728108E0,-5.011968378E0,9.386002606E0,1.083014936E1
4.011970708E0,2.125268470E0,-5.427676760E0,9.363890775E0,1.102990895E1
4.021905708E0,2.413485915E0,-5.907824966E0,9.518992848E0,1.146030257E1
4.031841708E0,2.541022460E0,-6.363261085E0,9.759066074E0,1.192422985E1
4.041776708E0,2.597372369E0,-6.966145856E0,9.882159319E0,1.236651140E1
4.051712708E0,2.652689953E0,-7.721434211E0,9.701445272E0,1.267972202E1
4.061647708E0,3.048731225E0,-8.445751033E0,9.129323287E0,1.280507775E1
4.071583708E0,3.695047944E0,-8.777043162E0,7.898282079E0,1.237225629E1
4.081518708E0,3.606774868E0,-8.706318165E0,7.597726423E0,1.210513312E1
4.091454708E0,3.656431763E0,-9.555570690E0,7.367097620E0,1.260763863E1
4.101389708E0,3.671076991E0,-1.043022937E1,6.390667570E0,1.277133990E1
4.111325708E0,3.335619013E0,-1.094976968E1,4.787575046E0,1.240744474E1
4.121260708E0,2.755174394E0,-1.106377869E1,2.762700053E0,1.173161099E1
4.131196708E0,2.512899984E0,-1.084932504E1,6.025052869E-1,1.115282622E1
4.141131708E0,2.777641735E0,-1.015663464E1,-1.597621284E0,1.065011336E1
4.151067708E0,2.679228126E0,-9.033003273E0,-3.039400238E0,9.900068954E0
4.161002708E0,1.961794792E0,-8.198404455E0,-3.296097683E0,9.051338815E0
4.170938708E0,1.056713052E0,-8.154844453E0,-2.680515098E0,8.648889623E0
4.180873708E0,5.507528968E-1,-8.502496507E0,-1.626726677E0,8.674215543E0
4.190809708E0,7.997884427E-1,-8.660341508E0,-8.615398639E-1,8.739761297E0
4.200744708E0,1.303073497E0,-8.592073511E0,-1.098197147E0,8.759438609E0
4.210680708E0,1.396745599E0,-8.190207244E0,-2.069082428E0,8.562213210E0
4.220615708E0,1.280289382E0,-7.830830938E0,-2.793165216E0,8.412064313E0
4.230551708E0,1.147225465E0,-7.727949178E0,-2.884587017E0,8.328155080E0
4.240486708E0,8.624362421E-1,-7.692097560E0,-3.049073287E0,8.319195217E0
4.250422708E0,9.488480761E-1,-7.535541869E0,-3.442849347E0,8.338939715E0
4.260357667E0,1.195745076E0,-6.862242004E0,-3.687694486E0,7.881577394E0
4.270293667E0,1.023912730E0,-5.932571552E0,-4.078572666E0,7.271764400E0
4.280228667E0,4.192394420E-1,-5.455676152E0,-4.440264469E0,7.046709342E0
4.290164667E0,1.112600885E-2,-5.412218476E0,-4.663107705E0,7.144004905E0
4.300099667E0,2.404079792E-1,-5.337440774E0,-3.966505516E0,6.654264498E0
4.310035667E0,3.813287269E-1,-5.259814893E0,-2.859900073E0,5.999174338E0
4.319970667E0,1.473390902E-1,-5.389060578E0,-2.133015153E0,5.797709580E0
4.329906667E0,2.478722423E-2,-5.462939563E0,-1.650228099E0,5.706800843E0
4.339841667E0,-1.294576469E-1,-5.119413890E0,-1.898457606E0,5.461620560E0
4.349777667E0,-1.706144437E-2,-4.758146009E0,-2.564312797E0,5.405177579E0
4.359712667E0,2.045516834E-2,-4.516270087E0,-3.218125939E0,5.545579183E0
4.369648667E0,3.575797489E-1,-4.424335485E0,-3.434752707E0,5.612498010E0
4.379583667E0,7.680308989E-1,-3.978542009E0,-2.858856930E0,4.959005034E0
4.389519667E0,7.899146882E-1,-3.806950788E0,-2.360870476E0,4.548686505E0
4.399454667E0,4.150134400E-1,-4.047031615E0,-2.144673332E0,4.598948222E0
4.409390667E0,2.520836994E-1,-4.176051013E0,-1.617944452E0,4.485609491E0
4.419325667E0,7.554295644E-1,-3.735955065E0,-1.687923928E0,4.168587442E0
4.429261667E0,1.370163133E0,-2.063225126E0,-3.079599845E0,3.951984330E0
4.439196667E0,2.030257647E0,-1.046283812E0,-4.760465015E0,5.280026808E0
4.449132667E0,2.313449703E0,-8.585004812E-1,-5.963807963E0,6.454151999E0
4.459067667E0,2.429668962E0,-1.137726079E0,-6.116831936E0,6.679322183E0
4.469003667E0,2.475500607E0,-1.231203176E0,-5.490251323E0,6.147098837E0
4.478938667E0,2.632423503E0,-1.217409595E0,-4.635947388E0,5.468431933E0
4.488874667E0,2.811230773E0,-9.936208642E-1,-3.945305851E0,4.945274425E0
4.498809667E0,3.037731442E0,-6.874407721E-1,-3.844336715E0,4.947657215E0
4.508745667E0,3.337442175E0,-4.130057985E-1,-4.596789170E0,5.695574136E0
4.518680667E0,3.602642641E0,1.652452379E-1,-5.735314563E0,6.774966651E0
4.528616667E0,3.884459140E0,5.122096592E-1,-6.586293771E0,7.663592315E0
4.538551667E0,4.067846534E0,6.003564352E-1,-7.063523047E0,8.173197728E0
4.548487667E0,4.146424341E0,8.591483527E-1,-7.212924085E0,8.364044749E0
4.558422667E0,4.150429099E0,1.301204873E0,-7.413043871E0,8.594906356E0
4.568358667E0,4.236828727E0,1.451899315E0,-7.612087185E0,8.831908095E0
4.578293667E0,4.268919416E0,1.416880340E0,-7.571741982E0,8.806957449E0
4.588229667E0,4.206774623E0,1.349775354E0,-7.285568138E0,8.520466497E0
4.598164667E0,3.825727367E0,1.059105002E0,-7.062738351E0,8.101861903E0
4.608100667E0,3.505368361E0,5.066998279E-1,-6.993789738E0,7.839480019E0
4.618035667E0,3.256891517E0,5.459428310E-2,-6.891955215E0,7.622950188E0
4.627971667E0,2.956158106E0,-3.466738147E-1,-6.810896434E0,7.432857036E0
4.637906667E0,2.937668041E0,-8.853082108E-1,-6.748559268E0,7.413279729E0
4.647842667E0,3.283225037E0,-1.470011065E0,-6.074735491E0,7.059951166E0
4.657777667E0,3.387072172E0,-1.907730120E0,-4.463814715E0,5.919234235E0
4.667713667E0,3.461039450E0,-2.055047795E0,-2.580731778E0,4.781442463E0
4.677649667E0,3.432546553E0,-2.272813894E0,-1.350441352E0,4.332637843E0
4.687584667E0,3.137541659E0,-2.577272565E0,-6.839751273E-1,4.117562813E0
4.697520667E0,2.760647680E0,-2.851889680E0,-6.173531216E-1,4.016911156E0
4.707455667E0,2.193732641E0,-3.171202326E0,-9.006208992E-1,3.959811245E0
4.717391667E0,1.580553262E0,-3.694340431E0,-1.362175545E0,4.242855412E0
4.727326667E0,1.207670472E0,-4.312663606E0,-1.677181424E0,4.782308321E0
4.737262667E0,1.101780613E0,-4.621445709E0,-1.158046322E0,4.890066691E0
4.747197667E0,9.186814865E-1,-4.662914455E0,1.072969919E-1,4.753762671E0
4.757133667E0,5.940502131E-1,-4.507589895E0,1.705176723E0,4.855809920E0
4.767068667E0,1.654393655E-1,-4.148894790E0,3.334679950E0,5.325484817E0
4.777004667E0,-2.426919016E-1,-3.710443078E0,4.540083457E0,5.868444853E0
4.786939667E0,-4.943411529E-1,-3.484340897E0,5.239910971E0,6.312025954E0
4.796875667E0,-8.738500071E-1,-3.322048503E0,5.974813592E0,6.891880553E0
4.806810667E0,-1.365145053E0,-3.191710558E0,6.919219612E0,7.741203869E0
4.816746667E0,-1.664345031E0,-2.936878667E0,8.142164766E0,8.814201482E0
4.826681667E0,-1.726537187E0,-2.621092184E0,9.794411908E0,1.028501626E1
4.836617667E0,-1.536657337E0,-2.464163733E0,1.147468359E1,1.183645986E1
4.846552667E0,-1.149902905E0,-2.478404920E0,1.272447681E1,1.301449491E1
4.856488667E0,-7.348467806E-1,-2.821569820E0,1.330998308E1,1.362559744E1
4.866423667E0,-2.557162821E-1,-3.422828481E0,1.334513303E1,1.377946738E1
4.876359667E0,-4.794599891E-2,-4.100319046E0,1.282907415E1,1.346848390E1
4.886294667E0,1.786824319E-1,-5.073194574E0,1.127694011E1,1.236683503E1
4.896230667E0,6.086811161E-1,-5.581545655E0,9.558318297E0,1.108537745E1
4.906165667E0,1.133835926E0,-5.498828019E0,8.783547605E0,1.042465357E1
4.916101667E0,1.930495377E0,-5.765484442E0,8.389338266E0,1.036091790E1
4.926036667E0,2.245002489E0,-6.111808593E0,8.281099287E0,1.053427007E1
4.935972667E0,2.372401916E0,-6.313047536E0,8.505830004E0,1.085504510E1
4.945907667E0,2.788564042E0,-6.659896767E0,8.938748496E0,1.149049777E1
4.955843667E0,3.067560136E0,-7.380738004E0,9.119583580E0,1.212650087E1
4.965778667E0,3.207722281E0,-7.970050803E0,9.266834012E0,1.263666905E1
4.975714667E0,3.248829376E0,-8.224906375E0,9.289306031E0,1.282556758E1
4.985649667E0,3.236375976E0,-8.732479777E0,8.854049238E0,1.285007862E1
4.995585667E0,3.445981408E0,-9.425238007E0,8.192130393E0,1.295457061E1
5.005520667E0,3.469922833E0,-9.961541119E0,7.474824967E0,1.292848306E1
5.015456667E0,3.356822187E0,-1.058990630E1,6.328198256E0,1.278516577E1
5.025391667E0,3.121372354E0,-1.120199517E1,4.271386356E0,1.238839791E1
5.035327667E0,2.860370189E0,-1.136789589E1,1.989849586E0,1.188992329E1
5.045262667E0,2.522285349E0,-1.106178596E1,1.715304101E-1,1.134700201E1
5.055198667E0,1.929648408E0,-1.053347599E1,-9.317082059E-1,1.074922042E1
5.065133667E0,1.332979520E0,-9.916863713E0,-1.344013508E0,1.009590970E1
5.075069667E0,1.138877176E0,-9.680346179E0,-1.522774585E0,9.865342660E0
5.085004667E0,1.216079719E0,-9.635383430E0,-1.606050338E0,9.843721928E0
5.094940667E0,1.320079100E0,-9.530497829E0,-1.717274905E0,9.773537272E0
5.104875667E0,1.540499542E0,-9.375678177E0,-1.490982104E0,9.617666440E0
5.114811667E0,1.395125043E0,-9.178578478E0,-1.203010826E0,9.361619080E0
5.124746667E0,1.013637930E0,-9.306333708E0,-1.377359302E0,9.462157660E0
5.134682667E0,7.932342987E-1,-9.420748515E0,-2.084756913E0,9.681215555E0
5.144617667E0,5.981748756E-1,-9.075699057E0,-2.845666780E0,9.530159809E0
5.154553667E0,3.916060490E-1,-8.711026343E0,-2.944571849E0,9.203577490E0
5.164488667E0,-9.427158818E-2,-8.478499534E0,-2.926125053E0,8.969729611E0
5.174424667E0,-5.279606695E-1,-8.471968194E0,-3.146963278E0,9.052975501E0
5.184359667E0,-6.287786541E-1,-8.277787424E0,-3.551215795E0,9.029300131E0
5.194295667E0,-5.024998460E-1,-7.728874208E0,-3.782683089E0,8.619553003E0
5.204230667E0,-1.785554011E-1,-7.047986410E0,-3.314599442E0,7.790543237E0
5.214166667E0,8.235964045E-2,-6.630668875E0,-2.609270868E0,7.126068152E0
5.224101667E0,1.507254320E-1,-6.288829538E0,-2.433917402E0,6.745075911E0
5.234037667E0,2.404057865E-1,-5.867964497E0,-2.689123954E0,6.459271625E0
5.243972667E0,4.790215941E-1,-5.481642467E0,-3.010465876E0,6.272222144E0
5.253908667E0,7.266399211E-1,-5.070249916E0,-3.355989543E0,6.123569678E0
5.263843542E0,9.311381024E-1,-4.636821547E0,-3.794209120E0,6.063262742E0
5.273779542E0,9.435856551E-1,-4.261090579E0,-4.315936292E0,6.137959994E0
5.283714542E0,7.768929389E-1,-3.869559265E0,-4.653179133E0,6.101567633E0
5.293650542E0,5.531384146E-1,-3.610107197E0,-4.745134785E0,5.987916182E0
5.303585542E0,5.675716817E-1,-3.682531979E0,-4.568373456E0,5.895185784E0
5.313521542E0,1.023369743E0,-3.766257675E0,-4.191360193E0,5.727083270E0
5.323456542E0,1.679199883E0,-3.041597621E0,-4.331182323E0,5.552492111E0
5.333392542E0,2.309812735E0,-1.698677543E0,-5.475787650E0,6.181018578E0
5.343327542E0,2.764370602E0,-9.640468168E-1,-6.986869558E0,7.575452284E0
5.353263542E0,2.922446569E0,-9.437622410E-1,-7.799052490E0,8.381921072E0
5.363199542E0,2.865343831E0,-1.287312473E0,-7.708075662E0,8.323568891E0
5.373134542E0,2.591587134E0,-1.624081104E0,-7.197748221E0,7.820584554E0
5.383070542E0,2.370402753E0,-1.568837196E0,-6.625506953E0,7.209535474E0
5.393005542E0,2.567849777E0,-1.256238030E0,-6.309974824E0,6.927320460E0
5.402941542E0,2.995977060E0,-7.239303213E-1,-6.470596669E0,7.167187378E0
5.412876542E0,3.533730866E0,-8.598973811E-2,-6.849319657E0,7.707647360E0
5.422812542E0,3.659581073E0,1.934492826E-1,-7.257979220E0,8.130696072E0
5.432747542E0,3.683206163E0,-9.413841784E-2,-7.256672367E0,8.138437413E0
5.442683542E0,3.694333999E0,-2.206037521E-1,-6.843279483E0,7.779925694E0
5.452618542E0,3.664631313E0,7.219089389E-2,-6.407439138E0,7.381734925E0
5.462554542E0,3.567970406E0,2.934928036E-1,-5.928322381E0,6.925428297E0
5.472489542E0,3.558065808E0,3.303232455E-1,-5.649265768E0,6.684545568E0
5.482425542E0,3.626399878E0,3.965780461E-1,-5.543739898E0,6.636347058E0
5.492360542E0,3.519045584E0,5.745497489E-1,-5.458866978E0,6.520200757E0
5.502296542E0,3.294447598E0,4.817105824E-1,-5.266956097E0,6.231071866E0
5.512231542E0,2.734772581E0,1.477070993E-1,-5.140003105E0,5.824124860E0
5.522167542E0,2.164807634E0,-3.466480869E-1,-5.051885566E0,5.507095855E0
5.532102542E0,1.810133075E0,-8.719122398E-1,-4.988307620E0,5.377734246E0
5.542038542E0,1.816719378E0,-1.284315775E0,-4.738243842E0,5.234586040E0
5.551973542E0,1.872803532E0,-1.469932712E0,-4.223355573E0,4.848177755E0
5.561909542E0,2.180982787E0,-1.539863657E0,-3.356592391E0,4.288890122E0
5.571844542E0,2.774200941E0,-1.415401579E0,-2.181261699E0,3.802296029E0
5.581780542E0,3.341644569E0,-9.723919630E-1,-1.090825562E0,3.647195493E0
5.591715542E0,3.572755183E0,-5.629120356E-1,-1.026952332E-1,3.618286317E0
5.601651542E0,3.713881241E0,-4.882737896E-1,7.008145237E-1,3.810835363E0
5.611586542E0,3.584577084E0,-9.799866191E-1,1.048057857E0,3.861086882E0
5.621522542E0,3.003773738E0,-1.986694429E0,4.919496417E-1,3.634780031E0
5.631457542E0,1.978382027E0,-3.087284841E0,-6.176121533E-1,3.718436218E0
5.641393542E0,8.710842741E-1,-4.135534487E0,-1.593070981E0,4.516559360E0
5.651328542E0,1.909835118E-1,-4.920744213E0,-1.916831312E0,5.284358106E0
5.661264542E0,4.184975034E-1,-5.128073616E0,-7.980221450E-1,5.206641769E0
5.671199542E0,1.558639652E-1,-4.379278887E0,3.410224223E0,5.552657598E0
5.681135542E0,-3.441922563E-1,-3.072001389E0,8.625068765E0,9.162285306E0
5.691070542E0,-4.406800854E-1,-2.125503528E0,1.152236646E1,1.172505407E1
5.701006542E0,-2.955510235E-1,-2.624150863E0,1.235332597E1,1.263242576E1
5.710941542E0,-2.212685806E-1,-3.149974302E0,1.136974594E1,1.180010257E1
5.720877542E0,-8.457202220E-1,-2.623986556E0,8.974635197E0,9.388536897E0
5.730812542E0,-1.250170667E0,-1.916070296E0,6.338484094E0,6.738741179E0
5.740748542E0,-5.449330169E-1,-1.527565501E0,4.812556105E0,5.078494326E0
5.750683542E0,7.861318320E-1,-1.305724478E0,5.496685599E0,5.704075056E0
5.760619542E0,1.664795852E0,-1.515169989E0,7.932573659E0,8.245787421E0
5.770554542E0,1.817628036E0,-1.705081121E0,1.068215081E1,1.096902088E1
5.780490542E0,1.469473706E0,-2.031974390E0,1.229407263E1,1.254721063E1
5.790425542E0,1.128644768E0,-2.849197329E0,1.275650786E1,1.311946101E1
5.800361542E0,8.771835047E-1,-3.556311643E0,1.243770714E1,1.296585370E1
5.810296542E0,5.380827114E-1,-4.400997493E0,1.094749394E1,1.181126308E1
5.820232542E0,4.924671203E-1,-4.929002820E0,9.516424751E0,1.072846367E1
5.830167542E0,1.025799261E0,-4.943483450E0,9.167997941E0,1.046625430E1
5.840103542E0,1.938313397E0,-5.052720548E0,8.810299786E0,1.033965309E1
5.850038542E0,2.796590222E0,-5.229294766E0,8.088967967E0,1.002984763E1
5.859974542E0,3.440384453E0,-5.635016688E0,7.460809776E0,9.962597090E0
5.869909542E0,4.000811715E0,-6.027696980E0,7.713663261E0,1.057545395E1
5.879845542E0,3.956376969E0,-6.128976603E0,8.457957096E0,1.116934694E1
5.889780542E0,3.742726725E0,-6.627452906E0,8.917939425E0,1.172436689E1
5.899716542E0,3.238307312E0,-7.321172419E0,8.749213924E0,1.185896050E1
5.909651542E0,2.705879150E0,-8.072081793E0,7.882896885E0,1.160260099E1
5.919587542E0,2.292206915E0,-8.589338184E0,6.658624998E0,1.110712518E1
5.929523542E0,2.338709675E0,-8.947416408E0,5.444072353E0,1.073143733E1
5.939458542E0,2.786154404E0,-9.116548875E0,4.192040809E0,1.041380458E1
5.949394542E0,2.945966117E0,-8.829089229E0,3.059377250E0,9.797516120E0
5.959329542E0,2.855164998E0,-8.789562635E0,1.810473967E0,9.417334786E0
5.969265542E0,2.572255947E0,-8.796412649E0,4.981365806E-1,9.178317721E0
5.979200542E0,2.408074463E0,-8.315002028E0,-6.481229246E-2,8.656921045E0
5.989136542E0,2.101872737E0,-7.997809875E0,-3.896128428E-1,8.278564487E0
5.999071542E0,1.835285457E0,-8.107324131E0,-5.325579697E-1,8.329501502E0
6.009007542E0,1.650491954E0,-8.051449308E0,-2.687675598E-1,8.223271590E0
6.018942542E0,1.421467919E0,-8.018362838E0,-1.423241526E-2,8.143397093E0
6.028878542E0,1.475403513E0,-8.357189689E0,-2.439607474E-1,8.489932383E0
6.038813542E0,1.697626652E0,-8.385169786E0,-3.206871803E-1,8.561299484E0
6.048749542E0,1.544396419E0,-8.467636576E0,-4.954850145E-1,8.621573806E0
6.058684542E0,1.352368010E0,-8.962760671E0,-1.275630321E0,9.153535426E0
6.068620542E0,9.201706262E-1,-8.935427862E0,-2.122967152E0,9.230144884E0
6.078555542E0,4.928981697E-2,-8.719640461E0,-2.676420878E0,9.121282145E0
6.088491542E0,-7.350646625E-1,-8.615556514E0,-2.902512242E0,9.121003860E0
6.098426542E0,-9.830638625E-1,-8.613377257E0,-2.597121524E0,9.049957046E0
6.108362542E0,-1.265077266E0,-8.482473301E0,-2.011521707E0,8.809029082E0
6.118297542E0,-1.403549273E0,-8.374278177E0,-1.718828802E0,8.663305258E0
6.128233542E0,-1.171124717E0,-8.168838009E0,-1.859937319E0,8.459362526E0
6.138168542E0,-7.701105342E-1,-7.629914761E0,-2.130193287E0,7.959044725E0
6.148104542E0,-1.804225633E-1,-6.911516490E0,-2.815605075E0,7.465202237E0
6.158039542E0,3.113067846E-1,-5.900853331E0,-3.999839323E0,7.135523566E0
6.167975542E0,3.195640764E-1,-5.021312814E0,-4.811039630E0,6.961451421E0
6.177910542E0,-2.392769815E-1,-4.626659671E0,-4.963372754E0,6.789573056E0
6.187846542E0,-8.715687159E-1,-4.797741015E0,-4.445856746E0,6.598756935E0
6.197781542E0,-1.204197519E0,-5.234190055E0,-3.276281469E0,6.291331931E0
6.207717542E0,-9.800728655E-1,-5.247118249E0,-1.871890343E0,5.656568412E0
6.217652542E0,-3.766492733E-1,-4.454621138E0,-6.822893751E-1,4.522281830E0
6.227588542E0,2.291848335E-1,-3.734766326E0,2.575897300E-1,3.750647633E0
6.237523542E0,4.594955483E-1,-3.533940196E0,6.791095130E-1,3.627817415E0
6.247459542E0,8.875424320E-1,-3.277804669E0,7.785778141E-1,3.483951553E0
6.257394542E0,1.271955346E0,-1.805977458E0,6.539292097E-2,2.209909776E0
6.267331083E0,2.182067446E0,-9.852347875E-1,-1.888800637E0,3.049536648E0
6.277266083E0,2.828961285E0,-9.995511103E-1,-3.579403467E0,4.670573151E0
6.287202083E0,2.634513883E0,-5.504124427E-1,-4.442557747E0,5.194221462E0
6.297137083E0,2.783355342E0,-4.020083553E-1,-4.836146697E0,5.594371506E0
6.307073083E0,3.122965136E0,-4.206387538E-1,-4.934814953E0,5.855104339E0
6.317008083E0,3.365041618E0,-9.432260513E-2,-5.232858059E0,6.222154395E0
6.326944083E0,3.759057414E0,4.625130039E-1,-5.791035604E0,6.919575442E0
6.336879083E0,4.116609973E0,7.472121799E-1,-6.231217507E0,7.505522989E0
6.346815083E0,4.171453348E0,6.345597231E-1,-6.491325048E0,7.742156673E0
6.356750083E0,3.901192701E0,-2.633761346E-2,-6.442278603E0,7.531464118E0
6.366686083E0,3.683844094E0,-7.195642054E-1,-6.293574554E0,7.327861941E0
6.376621083E0,3.751427382E0,-8.471077663E-1,-6.598635489E0,7.637590542E0
6.386557083E0,3.857660766E0,-5.472707337E-1,-7.345046600E0,8.314491049E0
6.396492083E0,3.970689783E0,-2.934816939E-1,-8.204082102E0,9.119181542E0
6.406428083E0,4.163900499E0,9.941611469E-2,-8.942141050E0,9.864574876E0
6.416363083E0,4.146801487E0,4.825829870E-1,-9.390896140E0,1.027705110E1
6.426299083E0,4.049403831E0,3.964850754E-1,-9.576754568E0,1.040524386E1
6.436234083E0,3.694629868E0,-1.060690767E-1,-9.456957983E0,1.015360009E1
6.446170083E0,3.074084167E0,-7.050058079E-1,-9.109659101E0,9.640171969E0
6.456105083E0,2.550428583E0,-1.207981544E0,-8.619870590E0,9.070064738E0
6.466041083E0,1.979376639E0,-1.553543218E0,-8.231355854E0,8.607360084E0
6.475977083E0,1.363626239E0,-2.009537746E0,-7.931046367E0,8.294529218E0
6.485912083E0,8.978943425E-1,-2.457481828E0,-7.642366991E0,8.077821761E0
6.495848083E0,3.381345409E-1,-2.659935238E0,-7.510140395E0,7.974446639E0
6.505783083E0,-1.065006012E-1,-2.635140120E0,-7.514045166E0,7.963427691E0
6.515719083E0,-1.176740456E-1,-2.389169977E0,-7.496381897E0,7.868781475E0
6.525654083E0,2.108628756E-1,-2.112017217E0,-7.213719306E0,7.519496400E0
6.535590083E0,8.729951441E-1,-2.249476486E0,-6.396955081E0,6.836907143E0
6.545525083E0,1.491776156E0,-2.715172715E0,-5.049024523E0,5.923698811E0
6.555461083E0,2.028927113E0,-3.168692116E0,-3.328287190E0,5.023410253E0
6.565396083E0,2.067429859E0,-3.559234082E0,-1.587588632E0,4.411672147E0
6.575332083E0,1.890379677E0,-3.915566327E0,-2.716785961E-1,4.356489900E0
6.585267083E0,1.838476868E0,-4.047820989E0,6.069140875E-1,4.487003083E0
6.595203083E0,1.841416263E0,-4.171219167E0,1.415883974E0,4.774370180E0
6.605138083E0,1.877434527E0,-4.220073531E0,2.121002634E0,5.082561675E0
6.615074083E0,1.809732540E0,-4.166499002E0,2.361793313E0,5.119854827E0
6.625009083E0,1.407226587E0,-3.976417131E0,2.853373411E0,5.092535683E0
6.634945083E0,1.006559583E0,-3.709190605E0,4.099748942E0,5.619537216E0
6.644880083E0,1.012906736E0,-3.262111326E0,5.358505368E0,6.354599133E0
6.654816083E0,1.307848187E0,-2.957081382E0,5.777541985E0,6.620784588E0
6.664751083E0,1.317224197E0,-2.752413631E0,5.547098538E0,6.330968534E0
6.674687083E0,1.261189452E0,-2.250505743E0,6.326396729E0,6.832179045E0
6.684622083E0,1.384737611E0,-1.752312590E0,8.810824866E0,9.089484720E0
6.694558083E0,1.828856151E0,-2.159685620E0,1.180888470E1,1.214325800E1
6.704493083E0,2.143378174E0,-2.884627655E0,1.412670812E1,1.457666043E1
6.714429083E0,1.880110797E0,-3.426672733E0,1.537322457E1,1.586231183E1
6.724364083E0,1.198057942E0,-3.792350875E0,1.530880931E1,1.581698171E1
6.734300083E0,1.193204461E0,-4.029981719E0,1.435801345E1,1.496051603E1
6.744235083E0,1.707703890E0,-4.144066451E0,1.304843478E1,1.379678186E1
6.754171083E0,1.976353043E0,-4.535535201E0,1.175190242E1,1.275085336E1
6.764106083E0,2.362594382E0,-5.197898726E0,1.063494623E1,1.207071186E1
6.774042083E0,2.616991239E0,-5.609155623E0,1.007398074E1,1.182355098E1
6.783977083E0,2.679670760E0,-5.626303167E0,9.921974180E0,1.171671858E1
6.793913083E0,2.957319363E0,-5.914759179E0,9.731799338E0,1.176596925E1
6.803848083E0,3.171448786E0,-6.603876933E0,9.189443189E0,1.175223996E1
6.813784083E0,3.016078618E0,-6.736131011E0,8.975942050E0,1.162065949E1
6.823719083E0,2.941094509E0,-6.995678973E0,1.000917254E1,1.256077609E1
6.833655083E0,3.290196673E0,-7.766840179E0,1.053877357E1,1.349870175E1
6.843590083E0,3.770693958E0,-8.333312584E0,1.035162759E1,1.381370425E1
6.853526083E0,4.293811598E0,-8.898602098E0,9.228807814E0,1.352008990E1
6.863462083E0,4.670668740E0,-9.406569017E0,7.897440664E0,1.314032938E1
6.873397083E0,4.664067818E0,-9.968553100E0,6.494456817E0,1.277902770E1
6.883333083E0,4.297759053E0,-1.058128049E1,4.961146134E0,1.245179508E1
6.893268083E0,3.730419213E0,-1.096564370E1,3.179787208E0,1.201134530E1
6.903204083E0,3.276510972E0,-1.087242856E1,1.489621457E0,1.145269396E1
6.913139083E0,2.926441387E0,-1.043554332E1,2.219334090E-1,1.084038182E1
6.923075083E0,3.031111810E0,-1.000574373E1,-7.937642026E-1,1.048487520E1
6.933010083E0,2.717446404E0,-9.577148085E0,-1.950838133E0,1.014455765E1
6.942946083E0,1.933661352E0,-9.000172911E0,-2.922859383E0,9.658429770E0
6.952881083E0,1.083120101E0,-8.534277293E0,-3.049489608E0,9.127235339E0
6.962817083E0,4.785899965E-1,-8.541861132E0,-2.462466579E0,8.902594096E0
6.972752083E0,4.859839468E-1,-8.903405001E0,-1.836510157E0,9.103821756E0
6.982688083E0,8.829881819E-1,-9.048106631E0,-1.656538121E0,9.240780285E0
6.992623083E0,1.328355103E0,-9.091777146E0,-2.012405806E0,9.406099940E0
7.002559083E0,1.519958566E0,-8.757824534E0,-2.373398867E0,9.200151454E0
7.012494083E0,1.464793887E0,-8.147809668E0,-2.833229753E0,8.749835104E0
7.022430083E0,1.463837575E0,-7.461008581E0,-2.717849570E0,8.074414887E0
7.032365083E0,1.027564316E0,-6.844084645E0,-2.170709375E0,7.253231159E0
7.042301083E0,4.995411183E-1,-6.694469014E0,-1.925982204E0,6.983900355E0
7.052236083E0,4.310030532E-1,-6.825930210E0,-1.767612122E0,7.064243730E0
7.062172083E0,5.473347242E-1,-6.758443401E0,-1.926437117E0,7.048921369E0
7.072107083E0,7.566883969E-1,-6.569902856E0,-2.355977672E0,7.020458080E0
7.082043083E0,9.390331592E-1,-6.263267266E0,-2.652206973E0,6.866185400E0
7.091978083E0,9.529800841E-1,-6.119626905E0,-2.942528247E0,6.856856202E0
7.101914083E0,1.063901765E0,-5.619312236E0,-3.740442803E0,6.833700998E0
7.111849083E0,1.452118731E0,-4.626488348E0,-3.988824338E0,6.278834513E0
7.121785083E0,1.256917330E0,-3.953142289E0,-3.716872677E0,5.569768184E0
7.131720083E0,9.556958234E-1,-3.841000294E0,-3.886328495E0,5.547088149E0
7.141656083E0,1.035865535E0,-3.716391451E0,-4.127852415E0,5.650110475E0
7.151591083E0,9.396212429E-1,-3.532293035E0,-4.258034824E0,5.611670227E0
7.161527083E0,6.737927860E-1,-3.571584570E0,-4.481142354E0,5.769822342E0
7.171462083E0,5.446581978E-1,-3.744097897E0,-4.556883385E0,5.922846258E0
7.181398083E0,8.147036666E-1,-3.434363283E0,-4.747605819E0,5.915940689E0
7.191333083E0,1.712971061E0,-2.258803380E0,-5.076394755E0,5.814313912E0
7.201269083E0,2.696799886E0,-1.151482238E0,-5.648033760E0,6.363876674E0
7.211204083E0,3.150271340E0,-5.297542298E-1,-6.509236239E0,7.250862396E0
7.221140083E0,3.235587772E0,-4.813620883E-1,-7.060281351E0,7.781279486E0
7.231075083E0,3.090307851E0,-7.406404942E-1,-7.200408704E0,7.870478795E0
7.241011083E0,2.576991899E0,-1.042835124E0,-7.112078326E0,7.636101784E0
7.250946083E0,2.152302779E0,-1.058865851E0,-7.075167192E0,7.470715825E0
7.260882083E0,1.885630569E0,-8.530695873E-1,-7.023174920E0,7.321770027E0
7.270816792E0,1.754907877E0,-8.412517798E-1,-7.026531222E0,7.291059403E0
7.280752792E0,1.831773035E0,-8.349601758E-1,-7.188141246E0,7.464712018E0
7.290688792E0,2.118723974E0,-5.549416959E-1,-7.606122440E0,7.915178465E0
7.300623792E0,2.588595698E0,-2.745735526E-2,-8.368239173E0,8.759509601E0
7.310559792E0,3.000229155E0,2.905177402E-1,-8.903573985E0,9.399968364E0
7.320494792E0,3.053833505E0,8.467645347E-2,-8.788929967E0,9.304749279E0
7.330430792E0,2.758415798E0,-2.837454951E-1,-8.152220222E0,8.610926999E0
7.340365792E0,2.424954352E0,-6.295580149E-1,-7.324763778E0,7.741376577E0
7.350301792E0,2.104388940E0,-7.258499622E-1,-6.601571376E0,6.966782299E0
7.360236792E0,1.765331123E0,-7.103601032E-1,-6.167461807E0,6.454346643E0
7.370172792E0,1.494796827E0,-7.123388010E-1,-6.094745248E0,6.315676034E0
7.380107792E0,1.306830479E0,-7.829912925E-1,-6.345120099E0,6.525444838E0
7.390043792E0,1.120638760E0,-8.817916954E-1,-6.637679102E0,6.789121569E0
7.399978792E0,1.155226210E0,-7.947284085E-1,-6.838475411E0,6.980751162E0
7.409914792E0,1.483493575E0,-6.852311093E-1,-6.706451129E0,6.902664819E0
7.419849792E0,1.889138898E0,-8.564118558E-1,-6.222479428E0,6.559080521E0
7.429785792E0,2.640614868E0,-1.313150150E0,-5.100934349E0,5.892091431E0
7.439720792E0,3.945254395E0,-1.464166188E0,-3.086942779E0,5.219006667E0
7.449656792E0,5.110143714E0,-1.270726846E0,-5.114465976E-1,5.290547525E0
7.459591792E0,5.434319197E0,-1.433163081E0,1.842531912E0,5.914448867E0
7.469527792E0,4.921241226E0,-2.080046981E0,3.265293381E0,6.261577398E0
7.479462792E0,3.911101978E0,-2.777575369E0,3.544468693E0,5.964469962E0
7.489398792E0,2.517587696E0,-2.990890567E0,3.106503469E0,4.993399443E0
7.499333792E0,1.078877946E0,-2.630250386E0,2.081043931E0,3.523200045E0
7.509269792E0,3.487867060E-1,-2.057571161E0,5.631535256E-1,2.161571915E0
7.519204792E0,8.122525138E-1,-1.678793501E0,-1.264943950E0,2.253482851E0
7.529140792E0,1.121171442E0,-1.670127635E0,-2.494506397E0,3.204514610E0
7.539075792E0,9.648736131E-1,-2.135837897E0,-2.596985283E0,3.498159112E0
7.549011792E0,6.415038764E-1,-2.814608125E0,-1.490230152E0,3.248743146E0
7.558946792E0,-2.063163731E-1,-3.244953257E0,5.680189937E-1,3.300747440E0
7.568882792E0,-1.327680773E0,-3.315426531E0,3.474140137E0,4.982412970E0
7.578817792E0,-2.265930551E0,-3.057756694E0,7.614575175E0,8.512700650E0
7.588753792E0,-2.674361781E0,-2.771627289E0,1.159838494E1,1.222115633E1
7.598688792E0,-2.601517753E0,-2.471535611E0,1.403946767E1,1.449079140E1
7.608624792E0,-2.252025580E0,-2.228089126E0,1.451060941E1,1.485240000E1
7.618559792E0,-1.831505525E0,-2.027697444E0,1.252990487E1,1.282437076E1
7.628495792E0,-1.135464376E0,-2.232880919E0,8.810738327E0,9.159920655E0
7.638430792E0,-2.495164794E-1,-2.936987133E0,6.234102523E0,6.895809319E0
7.648366792E0,-6.440415680E-3,-3.747887186E0,6.239322333E0,7.278450591E0
7.658302792E0,-1.581160203E-1,-4.428158686E0,7.651790949E0,8.842143108E0
7.668237792E0,-9.279463997E-1,-4.516974676E0,9.849742355E0,1.087573304E1
7.678173792E0,-1.444521005E0,-4.901538448E0,1.197221966E1,1.301713346E1
7.688108792E0,-1.431028555E0,-5.700213727E0,1.324279038E1,1.448833242E1
7.698044792E0,-1.040144820E0,-6.601165579E0,1.311596661E1,1.472025368E1
7.707979792E0,-1.961357859E-1,-7.358228563E0,1.194592005E1,1.403164291E1
7.717915792E0,9.163838232E-1,-7.668136840E0,1.101719275E1,1.345431597E1
7.727850792E0,2.055215318E0,-8.148721249E0,1.056305823E1,1.349828756E1
7.737786792E0,2.834347156E0,-8.943906909E0,1.021889696E1,1.387273764E1
7.747721792E0,3.378622653E0,-9.661480138E0,1.033022093E1,1.454210280E1
7.757657792E0,3.621767714E0,-1.015021556E1,1.079188784E1,1.525152191E1
7.767592792E0,3.522718512E0,-1.111115751E1,1.066389463E1,1.579829154E1
7.777528792E0,3.208910435E0,-1.233339632E1,9.737337821E0,1.603825174E1
7.787463792E0,2.712231857E0,-1.303807235E1,8.469060373E0,1.578203142E1
7.797399792E0,2.607135465E0,-1.328271985E1,6.967957324E0,1.522433024E1
7.807334792E0,3.068841553E0,-1.316699176E1,5.310781564E0,1.452555889E1
7.817270792E0,3.685199479E0,-1.244054772E1,3.342978319E0,1.339863526E1
7.827205792E0,4.282343161E0,-1.148761880E1,1.548655531E0,1.235727245E1
7.837141792E0,4.744637479E0,-1.081537961E1,7.028996408E-1,1.183123362E1
7.847076792E0,4.310334660E0,-1.071681895E1,-1.344485378E-1,1.155193792E1
7.857012792E0,3.391785905E0,-1.076242138E1,-1.291410202E0,1.135789003E1
7.866947792E0,2.784792880E0,-1.033673590E1,-2.100072233E0,1.090933012E1
7.876883792E0,2.133200803E0,-9.660235850E0,-2.476298460E0,1.019817417E1
7.886818792E0,1.384771671E0,-9.516544619E0,-2.512571662E0,9.939578986E0
7.896754792E0,8.592881012E-1,-9.913743639E0,-2.565706480E0,1.027635824E1
7.906689792E0,9.501546364E-1,-9.940449042E0,-2.687391424E0,1.034105380E1
7.916625792E0,1.698721982E0,-9.334305618E0,-2.894722289E0,9.919391860E0
7.926560792E0,2.357927865E0,-8.450686083E0,-3.319300019E0,9.380387609E0
7.936496792E0,2.053878498E0,-7.661141231E0,-4.241011240E0,8.994313659E0
7.946431792E0,9.167432807E-1,-7.372811519E0,-4.651879882E0,8.765771750E0
7.956367792E0,-4.278155166E-1,-7.526131361E0,-4.302807539E0,8.679852078E0
7.966302792E0,-1.336384061E0,-7.728588864E0,-3.908791743E0,8.763313361E0
7.976238792E0,-1.544594055E0,-7.617718053E0,-3.787019384E0,8.646208126E0
7.986174792E0,-8.706137925E-1,-7.181370755E0,-3.447306679E0,8.013362443E0
7.996109792E0,-3.521134794E-2,-6.500505177E0,-2.884717995E0,7.111919945E0
8.006045792E0,2.134917837E-1,-6.132468560E0,-2.756844943E0,6.727030803E0
8.015980792E0,2.189498672E-1,-6.073713983E0,-3.273811605E0,6.903316812E0
8.025916792E0,4.509587596E-1,-5.976758961E0,-3.520122056E0,6.950990632E0
8.035851792E0,2.627708016E-1,-5.684960096E0,-3.773073775E0,6.828169996E0
8.045787792E0,-3.254209399E-2,-5.582192942E0,-4.479227683E0,7.157193421E0
8.055722792E0,-8.511397138E-2,-5.474158031E0,-4.700363824E0,7.215751563E0
8.065658792E0,-2.405860269E-1,-5.207061898E0,-4.292547722E0,6.752580336E0
8.075593792E0,-4.447009233E-1,-4.824026003E0,-3.900406543E0,6.219498131E0
8.085529792E0,-3.357865915E-1,-4.469806942E0,-4.027911805E0,6.026275818E0
8.095464792E0,1.049575210E-3,-3.852094216E0,-4.347175334E0,5.808318547E0
8.105400792E0,3.543184644E-1,-2.902009966E0,-4.863365486E0,5.674462729E0
8.115335792E0,4.711592817E-1,-2.472259496E0,-5.335716430E0,5.899485393E0
8.125271792E0,2.991780514E-1,-2.691820105E0,-5.437909387E0,6.075052386E0
8.135206792E0,-1.121495962E-3,-3.129141549E0,-4.957518522E0,5.862466886E0
8.145142792E0,-1.766709897E-1,-3.227144977E0,-4.212306089E0,5.309350236E0
8.155077792E0,3.294572729E-1,-2.799947401E0,-3.741959571E0,4.685137028E0
8.165013792E0,1.116208910E0,-2.207700469E0,-3.758854516E0,4.499872327E0
8.174948792E0,1.893082260E0,-1.167266212E0,-4.224835503E0,4.774463937E0
8.184884792E0,2.418811267E0,-2.442335200E-1,-5.062720456E0,5.616176313E0
8.194819792E0,2.798446421E0,2.054851913E-1,-5.853730620E0,6.491508970E0
8.204755792E0,3.022455007E0,7.703162831E-1,-6.446913106E0,7.161795169E0
8.214690792E0,2.971957868E0,1.177533923E0,-6.976610034E0,7.674125831E0
8.224626792E0,2.736991015E0,9.828000069E-1,-7.312373528E0,7.869423250E0
8.234561792E0,2.440658219E0,3.964517462E-1,-7.329310573E0,7.735165157E0
8.244497792E0,2.115973443E0,-7.690141082E-2,-7.178095145E0,7.483869811E0
8.254432792E0,1.620896711E0,-2.901025879E-1,-7.055257423E0,7.244868733E0
8.264369333E0,1.523595534E0,-6.763532817E-2,-6.897544568E0,7.064137524E0
8.274304333E0,1.931070451E0,6.616276538E-1,-6.477904519E0,6.791909245E0
8.284240333E0,2.549524019E0,1.512715620E0,-5.714393225E0,6.437598248E0
8.294175333E0,3.063312426E0,2.137856648E0,-4.955125841E0,6.205448104E0
8.304111333E0,3.244443964E0,2.382531048E0,-4.641513353E0,6.143819418E0
8.314047333E0,3.403774159E0,2.201346885E0,-4.763426630E0,6.254745390E0
8.323982333E0,3.396091502E0,1.887694636E0,-5.271311688E0,6.548553691E0
8.333918333E0,2.978247718E0,1.311968427E0,-5.928957973E0,6.763413581E0
8.343853333E0,2.579343064E0,2.755880445E-1,-6.178398439E0,6.700863130E0
8.353789333E0,2.431121410E0,-1.024020538E0,-5.860735584E0,6.427067058E0
8.363724333E0,2.354653863E0,-2.001704816E0,-5.150967219E0,6.006969309E0
8.373660333E0,2.216822126E0,-2.270362156E0,-3.980709572E0,5.090667280E0
8.383595333E0,2.182344019E0,-2.097100970E0,-2.533572814E0,3.947081086E0
8.393531333E0,2.532834311E0,-1.855296384E0,-1.222720036E0,3.369335039E0
8.403466333E0,3.024689813E0,-1.794109365E0,-2.283361101E-1,3.524161497E0
8.413402333E0,3.210478658E0,-2.219633175E0,1.384620667E-2,3.903093179E0
8.423337333E0,2.966756185E0,-2.920899396E0,-6.588993430E-1,4.215144586E0
8.433273333E0,2.349675251E0,-3.551877699E0,-1.031182208E0,4.381797088E0
8.443208333E0,1.940112293E0,-3.712746004E0,2.040894610E-1,4.194063794E0
8.453144333E0,1.875554939E0,-3.407082221E0,2.085910569E0,4.413268459E0
8.463079333E0,1.786803561E0,-3.367119133E0,3.134130979E0,4.934869321E0
8.473015333E0,1.396053435E0,-3.661083807E0,3.483084623E0,5.242554561E0
8.482950333E0,7.719102341E-1,-3.715735101E0,3.811588799E0,5.378730512E0
8.492886333E0,-2.517132783E-1,-3.623927675E0,5.174357252E0,6.322197746E0
8.502821333E0,-1.253360323E0,-3.336753666E0,7.501316947E0,8.305094404E0
8.512757333E0,-1.773382739E0,-2.550186508E0,9.846131115E0,1.032446781E1
8.522692333E0,-1.986364646E0,-1.667100678E0,1.099304843E1,1.129477680E1
8.532628333E0,-2.267650802E0,-1.099717715E0,1.045660499E1,1.075603120E1
8.542563333E0,-2.022494299E0,-8.272612931E-1,9.166862996E0,9.423705303E0
8.552499333E0,-1.727380063E0,-7.894243991E-1,8.121613557E0,8.340721763E0
8.562434333E0,-1.337404985E0,-7.487850809E-1,7.593819898E0,7.746962749E0
8.572370333E0,-7.778784871E-1,-6.400836609E-1,7.506912147E0,7.574201742E0
8.582305333E0,-4.435779655E-1,-9.619288091E-1,7.622914474E0,7.696160960E0
8.592241333E0,-5.437881321E-2,-1.485750308E0,7.835704592E0,7.975504842E0
8.602176333E0,6.378408882E-1,-1.916976030E0,7.756220466E0,8.015023020E0
8.612112333E0,1.318931292E0,-2.340301872E0,7.285877455E0,7.765346283E0
8.622048333E0,1.691470850E0,-2.491067065E0,6.722273694E0,7.365830054E0
8.631983333E0,2.134597410E0,-2.494122235E0,6.491640798E0,7.274513872E0
8.641919333E0,2.866917024E0,-2.775665084E0,6.280710095E0,7.441159128E0
8.651854333E0,3.236262833E0,-2.977342569E0,6.280672088E0,7.667125130E0
8.661790333E0,3.350448137E0,-3.377071095E0,7.478384752E0,8.863202039E0
8.671725333E0,3.759677219E0,-4.536878014E0,8.740898598E0,1.054142985E1
8.681661333E0,3.446799726E0,-6.012705889E0,9.600168573E0,1.184045173E1
8.691596333E0,2.851980312E0,-7.200742580E0,9.927437818E0,1.259120753E1
8.701532333E0,2.459049174E0,-8.020640913E0,9.794925293E0,1.289644001E1
8.711467333E0,2.128501980E0,-8.808165552E0,9.550417539E0,1.316528679E1
8.721403333E0,1.972411143E0,-9.627207853E0,9.362379854E0,1.357305026E1
8.731338333E0,2.131743384E0,-1.028484887E1,9.059308142E0,1.387059877E1
8.741274333E0,2.644822817E0,-1.069924222E1,8.629692158E0,1.399787336E1
8.751209333E0,3.336813892E0,-1.099603987E1,7.857283741E0,1.392063675E1
8.761145333E0,4.150156619E0,-1.112261221E1,6.930832767E0,1.374673580E1
8.771080333E0,4.588343744E0,-1.157296125E1,5.809498773E0,1.373814421E1
8.781016333E0,4.550282171E0,-1.232579728E1,4.595740179E0,1.391945309E1
8.790951333E0,3.970390990E0,-1.270711994E1,3.343647240E0,1.372642993E1
8.800887333E0,3.046942269E0,-1.282740886E1,1.913663290E0,1.332247659E1
8.810822333E0,2.332656491E0,-1.280565488E1,7.646824908E-1,1.303881983E1
8.820758333E0,1.726404309E0,-1.263161250E1,1.858853245E-1,1.275039841E1
8.830693333E0,1.009058171E0,-1.265702684E1,-3.581559920E-1,1.270223613E1
8.840629333E0,7.248633908E-1,-1.235748217E1,-1.263442385E0,1.244303336E1
8.850564333E0,1.155802453E0,-1.151523286E1,-1.683470397E0,1.169489374E1
8.860500333E0,1.427942103E0,-1.069977314E1,-1.902771974E0,1.096105402E1
8.870435333E0,1.587021013E0,-1.012902526E1,-2.300406904E0,1.050750495E1
8.880371333E0,1.402140533E0,-9.829707456E0,-2.418945314E0,1.021961072E1
8.890307333E0,9.837919870E-1,-9.693964929E0,-2.577443889E0,1.007888981E1
8.900242333E0,9.136736387E-1,-9.478919540E0,-2.524926537E0,9.851901805E0
8.910178333E0,7.604383624E-1,-9.166529120E0,-2.252555630E0,9.469822041E0
8.920113333E0,3.679752944E-1,-8.852531301E0,-2.441472151E0,9.190402739E0
8.930049333E0,1.726361185E-1,-8.359467180E0,-2.485894618E0,8.722967775E0
8.939984333E0,-1.398285609E-1,-7.944207864E0,-2.358585531E0,8.288118986E0
8.949920333E0,-4.553101113E-1,-7.626125765E0,-2.657574717E0,8.088745567E0
8.959855333E0,-4.062546033E-1,-7.175481439E0,-3.013487717E0,7.793181950E0
8.969791333E0,-4.745103210E-1,-6.789978604E0,-3.339978697E0,7.581848534E0
8.979726333E0,-5.077903336E-1,-6.532432144E0,-3.934145855E0,7.642514268E0
8.989662333E0,-2.598549414E-1,-6.181364731E0,-4.383809310E0,7.582517959E0
8.999597333E0,5.994156182E-2,-5.816807207E0,-4.459676348E0,7.329908063E0
9.009533333E0,4.368931362E-1,-5.260782607E0,-4.477308335E0,6.921921639E0
9.019468333E0,8.312334529E-1,-4.733708741E0,-4.312223018E0,6.457105765E0
9.029404333E0,6.846209523E-1,-4.299145428E0,-3.930099581E0,5.864898974E0
9.039339333E0,3.577238828E-1,-3.922944344E0,-3.725740272E0,5.422047516E0
9.049275333E0,3.632693821E-1,-3.911323587E0,-3.331808968E0,5.150860884E0
9.059210333E0,4.502987552E-1,-3.957583834E0,-3.119233443E0,5.059135899E0
9.069146333E0,9.443329293E-1,-3.234193211E0,-3.559255131E0,4.901027188E0
9.079081333E0,1.574173365E0,-2.277748944E0,-4.313237218E0,5.125444110E0
9.089017333E0,1.881052784E0,-1.798926886E0,-5.337203377E0,5.938033126E0
9.098952333E0,2.124668838E0,-1.281216751E0,-6.524600383E0,6.980411463E0
9.108888333E0,2.463203913E0,-8.542138875E-1,-7.620811815E0,8.054429068E0
9.118823333E0,2.840767398E0,-7.041369116E-1,-8.493801112E0,8.983898126E0
9.128759333E0,3.197586717E0,-6.898691207E-1,-9.020643429E0,9.595441005E0
9.138694333E0,3.419585615E0,-5.689013386E-1,-9.306012111E0,9.930713767E0
9.148630333E0,3.389749027E0,-6.289943433E-1,-9.375919082E0,9.989689234E0
9.158565333E0,3.093715609E0,-1.118774083E0,-8.987027786E0,9.570235114E0
9.168501333E0,2.684179548E0,-1.662965088E0,-8.243298208E0,8.827357366E0
9.178437333E0,2.588258899E0,-1.777061223E0,-7.607199497E0,8.229612075E0
9.188372333E0,2.808871422E0,-1.401040233E0,-7.230869190E0,7.882774996E0
9.198308333E0,3.179636350E0,-9.114984745E-1,-7.017788465E0,7.758238958E0
9.208243333E0,3.517954493E0,-4.913602424E-1,-6.890436108E0,7.752131866E0
9.218179333E0,3.521922414E0,-2.003144985E-1,-6.866154960E0,7.719335938E0
9.228114333E0,3.191220853E0,-2.157938325E-1,-6.837689545E0,7.548804927E0
9.238050333E0,2.707629222E0,-3.520567614E-1,-6.790843992E0,7.319205018E0
9.247985333E0,2.359743864E0,-4.817725629E-1,-6.910849323E0,7.318492623E0
9.257921333E0,2.030340385E0,-8.598453408E-1,-7.058987362E0,7.395330869E0
9.267856333E0,1.162153991E0,-1.692733848E0,-6.975589110E0,7.271505567E0
9.277792333E0,3.608205682E-1,-2.584602050E0,-6.799963894E0,7.283534047E0
9.287727333E0,5.181802511E-2,-3.010598608E0,-6.319289439E0,6.999986292E0
9.297663333E0,2.390604883E-1,-3.040256270E0,-5.835959762E0,6.584734957E0
9.307598333E0,1.249849362E0,-2.737095096E0,-4.715395554E0,5.593636404E0
9.317534333E0,2.378791754E0,-2.333499221E0,-2.469622986E0,4.147638668E0
9.327469333E0,3.125974697E0,-1.822484733E0,3.676442689E-1,3.637077222E0
9.337405333E0,3.331748157E0,-1.327392213E0,2.583299291E0,4.419949218E0
9.347340333E0,3.490605896E0,-1.226646441E0,3.323523463E0,4.973409215E0
9.357276333E0,3.301770067E0,-1.494525517E0,2.800958970E0,4.580465396E0
9.367211333E0,2.671447821E0,-1.942591220E0,1.316883012E0,3.555907054E0
9.377147333E0,1.773055003E0,-2.469853951E0,-5.115804988E-1,3.083118096E0
9.387082333E0,8.488236317E-1,-3.023507506E0,-1.718565677E0,3.579883683E0
9.397018333E0,2.313485956E-1,-3.465497075E0,-6.398976463E-1,3.531665492E0
9.406953333E0,-4.969022334E-2,-3.735077105E0,1.944379299E0,4.211161474E0
9.416889333E0,-3.824435717E-1,-3.423815783E0,4.362882417E0,5.559093504E0
9.426824333E0,-7.892861125E-1,-2.674408851E0,5.519694977E0,6.184049475E0
9.436760333E0,-1.171967373E0,-2.152908551E0,5.035875889E0,5.600765012E0
9.446696333E0,-1.681415393E0,-1.888350401E0,3.503247576E0,4.320389860E0
9.456631333E0,-1.923640687E0,-1.589528591E0,1.835547997E0,3.097778411E0
9.466567333E0,-1.755928216E0,-1.124851387E0,5.890204382E-1,2.166914770E0
9.476502333E0,-1.070049235E0,-7.529991692E-1,2.636234719E-1,1.334732351E0
9.486438333E0,-1.487759703E-1,-7.077385772E-1,7.791350538E-1,1.063052028E0
9.496373333E0,2.287182257E-1,-5.398054473E-1,2.861472974E0,2.920912448E0
9.506309333E0,5.086905125E-1,-4.058612684E-1,6.186138398E0,6.220273120E0
9.516244333E0,1.084689201E0,-6.548630100E-1,9.084826561E0,9.172756939E0
9.526180333E0,1.426763012E0,-1.094349533E0,1.107595026E1,1.122095930E1
9.536115333E0,1.100816699E0,-1.662062132E0,1.170776062E1,1.187627495E1
9.546051333E0,1.959887284E-1,-2.168674398E0,1.169417871E1,1.189518288E1
9.555986333E0,-4.984771809E-1,-2.609256835E0,1.151056210E1,1.181311731E1
9.565922333E0,-8.876903665E-1,-3.035930792E0,1.112691225E1,1.156775891E1
9.575857333E0,-1.104338185E0,-3.289818065E0,1.049645610E1,1.105522756E1
9.585793333E0,-9.434052685E-1,-3.613694463E0,9.548085669E0,1.025254803E1
9.595728333E0,-3.724422017E-1,-4.120828155E0,8.454212539E0,9.412419855E0
9.605664333E0,4.385335726E-1,-4.454788953E0,7.816829780E0,9.007790191E0
9.615599333E0,1.380342551E0,-4.579466209E0,7.930232434E0,9.260963383E0
9.625535333E0,1.984832968E0,-4.666823903E0,8.571910558E0,9.959741857E0
9.635470333E0,2.508959837E0,-5.002582428E0,9.374259642E0,1.091775866E1
9.645406333E0,3.085584471E0,-5.621510789E0,1.014022735E1,1.199776753E1
9.655341333E0,3.207040495E0,-6.751571753E0,1.029915467E1,1.272562049E1
9.665277333E0,2.890252385E0,-8.100060720E0,1.047799761E1,1.355555150E1
9.675212333E0,2.687328274E0,-9.335611886E0,1.090517998E1,1.460473666E1
9.685148333E0,2.577982417E0,-1.061913536E1,1.100578133E1,1.550932790E1
9.695084333E0,2.520812143E0,-1.182688010E1,1.097922561E1,1.633318651E1
9.705019333E0,2.650596650E0,-1.299215650E1,1.041802623E1,1.686289013E1
9.714955333E0,2.855065887E0,-1.401938482E1,8.710122948E0,1.674994907E1
9.724890333E0,2.827652678E0,-1.463551529E1,6.314500569E0,1.618847877E1
9.734826333E0,2.335111006E0,-1.465172728E1,3.777979004E0,1.531009409E1
9.744761333E0,1.755363667E0,-1.427014851E1,1.923581922E0,1.450581289E1
9.754697333E0,1.268529462E0,-1.395731780E1,7.104864031E-1,1.403284283E1
9.764632333E0,9.705913860E-1,-1.367908155E1,1.533376756E-1,1.371432944E1
9.774568333E0,4.610972469E-1,-1.321670829E1,-8.993251562E-2,1.322505488E1
9.784503333E0,-3.885511346E-2,-1.295202472E1,-7.678244922E-1,1.297482210E1
9.794439333E0,-3.143425859E-1,-1.276809470E1,-1.150817702E0,1.282370598E1
9.804374333E0,-7.036992475E-1,-1.240199819E1,-1.288033727E0,1.248854606E1
9.814310333E0,-8.555600627E-1,-1.191900181E1,-1.111894688E0,1.200128730E1
9.824245333E0,-6.341607969E-1,-1.165338736E1,-6.999450427E-1,1.169160040E1
9.834181333E0,-2.352448878E-1,-1.153421292E1,-4.260784185E-1,1.154447706E1
9.844116333E0,3.861971918E-1,-1.122640145E1,-1.049230224E-1,1.123353224E1
9.854052333E0,6.704338530E-1,-1.085775322E1,5.016213018E-2,1.087854782E1
9.863987333E0,3.016448455E-1,-1.029728006E1,-1.045393208E0,1.035460347E1
9.873923333E0,9.667084694E-2,-9.381274547E0,-2.715056355E0,9.766738882E0
9.883858333E0,-2.917629048E-1,-8.363873057E0,-4.059822400E0,9.301701781E0
9.893794333E0,-4.524189556E-1,-7.483539072E0,-4.571756363E0,8.781172826E0
9.903729333E0,-3.379754966E-1,-6.993077547E0,-4.287682254E0,8.209846535E0
9.913665333E0,-2.657775861E-1,-6.836399065E0,-3.963659383E0,7.906806283E0
9.923601333E0,2.127851477E-1,-6.507753970E0,-3.769042119E0,7.523417957E0
9.933536333E0,6.702163365E-1,-6.266473879E0,-3.465570165E0,7.192222284E0
9.943472333E0,9.680796415E-1,-6.087558435E0,-2.926200189E0,6.823356465E0
9.953407333E0,1.321773039E0,-5.657030870E0,-2.494575394E0,6.322340439E0
9.963343333E0,1.985518554E0,-4.559897332E0,-3.007847200E0,5.812236436E0
9.973278333E0,2.733509583E0,-2.507281979E0,-4.464320792E0,5.804196559E0
9.983214333E0,2.535582502E0,-5.625799137E-1,-5.591280684E0,6.165070517E0
9.993149333E0,2.570376359E0,-4.664674759E-2,-6.946654748E0,7.407092731E0
1.000308533E1,3.112155973E0,-1.517372927E0,-8.136501153E0,8.842544114E0
1.001302033E1,3.053318950E0,-2.119071298E0,-7.079227499E0,7.995541367E0
1.002295633E1,3.147446258E0,-2.265152872E0,-5.390067469E0,6.640042379E0
1.003289133E1,3.335367583E0,-2.687484979E0,-4.032392819E0,5.882809216E0
1.004282733E1,2.951288545E0,-2.916870664E0,-3.504862870E0,5.431602184E0
1.005276233E1,2.667537788E0,-2.697696556E0,-4.447691310E0,5.845962928E0
1.006269833E1,2.564135041E0,-2.092187555E0,-6.150594928E0,6.984400851E0
1.007263333E1,2.387949663E0,-1.423542657E0,-7.652525944E0,8.141862846E0
1.008256933E1,2.227592697E0,-1.003375774E0,-8.770111288E0,9.104053173E0
1.009250433E1,2.121065199E0,-7.907476240E-1,-9.579677006E0,9.843495869E0
1.010244033E1,2.246623045E0,-8.793919981E-1,-1.003589548E1,1.032181396E1
1.011237533E1,2.376884977E0,-1.638408537E0,-9.988141272E0,1.039696738E1
1.012231133E1,2.126455162E0,-2.728111433E0,-9.554454457E0,1.016129930E1
1.013224633E1,1.478420531E0,-3.502356461E0,-8.694257698E0,9.489064494E0
1.014218233E1,8.926873970E-1,-3.697584466E0,-7.649400022E0,8.542970348E0
1.015211733E1,6.628994232E-1,-3.771935906E0,-6.800814664E0,7.804999438E0
1.016205333E1,3.427345455E-1,-4.068089193E0,-6.282959518E0,7.492823030E0
1.017198933E1,-2.542217338E-1,-4.692188832E0,-5.967817984E0,7.595795956E0
1.018192433E1,-9.052191496E-1,-5.438715134E0,-5.346046121E0,7.679795124E0
1.019186033E1,-1.069941646E0,-5.404942201E0,-4.731744077E0,7.262752738E0
1.020179533E1,-9.679539263E-1,-4.340914428E0,-4.609850388E0,6.405559576E0
1.021173133E1,-6.469394481E-1,-3.037667708E0,-4.660032654E0,5.600166077E0
1.022166633E1,1.545518500E-1,-1.973023639E0,-4.696825674E0,5.096751904E0
1.023160233E1,9.548970938E-1,-1.106637602E0,-4.724983818E0,4.945902074E0
1.024153733E1,1.613366666E0,-5.292045915E-1,-4.832526393E0,5.122140260E0
1.025147333E1,1.958386889E0,-5.628564870E-1,-4.982483793E0,5.383050379E0
1.026140833E1,1.628117437E0,-1.310967969E0,-5.131053357E0,5.540497447E0
1.027134429E1,1.215781730E0,-2.388046142E0,-5.349100122E0,5.982788790E0
1.028127929E1,8.501535809E-1,-3.306943098E0,-5.191960294E0,6.214103754E0
1.029121529E1,8.014550453E-1,-3.750944402E0,-4.371352694E0,5.815551433E0
1.030115029E1,1.285321204E0,-3.864231867E0,-3.026555074E0,5.073891419E0
1.031108629E1,1.948278222E0,-3.690058515E0,-1.503764702E0,4.435496382E0
1.032102129E1,2.512863731E0,-3.451777753E0,-2.837092423E-1,4.278988750E0
1.033095729E1,2.696114885E0,-3.475962129E0,2.554274297E-1,4.406426144E0
1.034089229E1,2.395837557E0,-3.872731964E0,-6.315460682E-2,4.554347260E0
1.035082829E1,1.780716317E0,-4.321613646E0,-9.323344427E-1,4.766187431E0
1.036076329E1,1.186852630E0,-4.823029930E0,-3.341461551E-1,4.978141272E0
1.037069929E1,6.514368340E-1,-5.169691758E0,2.399131293E0,5.736367647E0
1.038063429E1,4.489018553E-1,-4.922918208E0,5.297435294E0,7.245650919E0
1.039057029E1,4.934903830E-1,-4.341041898E0,7.752387031E0,8.898746103E0
1.040050629E1,1.877570182E-2,-3.964407242E0,9.684702355E0,1.046471868E1
1.041044129E1,-7.840119240E-1,-3.658554009E0,1.003832442E1,1.071296641E1
1.042037729E1,-1.587157107E0,-2.915753261E0,8.708403867E0,9.319709366E0
1.043031229E1,-2.027646281E0,-1.782683321E0,6.312191504E0,6.865352929E0
1.044024829E1,-1.383701777E0,-1.011308545E0,4.113760040E0,4.456500561E0
1.045018329E1,-4.218286622E-1,-9.505663535E-1,3.638450990E0,3.784156632E0
1.046011929E1,2.783379900E-1,-1.293469299E0,5.370319667E0,5.530901210E0
1.047005429E1,6.789740038E-1,-1.641039199E0,8.131163814E0,8.322850493E0
1.047999029E1,7.163897520E-1,-1.804173154E0,1.100573221E1,1.117561616E1
1.048992529E1,5.028643468E-1,-1.997919914E0,1.328647376E1,1.344525721E1
1.049986129E1,2.131152231E-1,-2.454638619E0,1.425960715E1,1.447090408E1
1.050979629E1,-2.664079159E-2,-3.058068058E0,1.458053626E1,1.489780278E1
1.051973229E1,-1.489519715E-1,-3.517390822E0,1.456864536E1,1.498798361E1
1.052966729E1,5.052140504E-2,-4.072203879E0,1.379490787E1,1.438349332E1
1.053960329E1,5.266496506E-1,-5.011903474E0,1.207211466E1,1.308176168E1
1.054953829E1,8.551804322E-1,-5.788897278E0,1.004318696E1,1.162360829E1
1.055947429E1,1.104653642E0,-6.113400205E0,8.346226745E0,1.040449050E1
1.056940929E1,1.449515112E0,-6.342501715E0,7.647916583E0,1.004086899E1
1.057934529E1,1.741206681E0,-6.463188831E0,8.144728770E0,1.054235350E1
1.058928029E1,1.906750419E0,-6.701269326E0,8.979450964E0,1.136544092E1
1.059921629E1,2.169382788E0,-7.328709480E0,9.374111123E0,1.209504707E1
1.060915229E1,2.568978582E0,-7.900456658E0,9.412992184E0,1.255473171E1
1.061908729E1,2.833466565E0,-8.574172261E0,9.329597440E0,1.298408068E1
1.062902329E1,3.056244604E0,-9.396482570E0,9.274074034E0,1.355149309E1
1.063895829E1,3.321437761E0,-1.015471441E1,9.269220260E0,1.414456142E1
1.064889429E1,3.564234036E0,-1.104449574E1,9.030103639E0,1.470467348E1
1.065882929E1,3.895975816E0,-1.212729249E1,8.069614268E0,1.507874415E1
1.066876529E1,3.986320852E0,-1.324919776E1,6.161340941E0,1.514576236E1
1.067870029E1,3.649143793E0,-1.392959264E1,3.793010441E0,1.489082703E1
1.068863629E1,3.145063518E0,-1.394487258E1,1.646004070E0,1.438958739E1
1.069857129E1,2.661030714E0,-1.346927176E1,1.314804912E-1,1.373024593E1
1.070850729E1,2.122459175E0,-1.282481036E1,-9.192314172E-1,1.303171439E1
1.071844229E1,1.908329899E0,-1.223146883E1,-1.663173834E0,1.249066451E1
1.072837829E1,1.830133476E0,-1.155114061E1,-1.955801250E0,1.185763030E1
1.073831329E1,1.546943612E0,-1.091797018E1,-1.835467598E0,1.117873198E1
1.074824929E1,1.198391818E0,-1.076198986E1,-1.737899496E0,1.096708089E1
1.075818429E1,1.286795579E0,-1.070990520E1,-1.471939184E0,1.088689658E1
1.076812029E1,1.697536459E0,-1.039717506E1,-6.431054288E-1,1.055445232E1
1.077805529E1,1.520442131E0,-1.042891491E1,-7.364908715E-1,1.056486769E1
1.078799129E1,1.574542324E0,-1.052475078E1,-1.791637747E0,1.079164159E1
1.079792629E1,1.701773643E0,-1.007659912E1,-2.976505247E0,1.064394038E1
1.080786229E1,1.256907829E0,-9.304019964E0,-3.901292104E0,1.016684242E1
1.081779829E1,5.477866774E-1,-8.685352973E0,-4.221275718E0,9.672362442E0
1.082773329E1,-6.997246027E-2,-8.526333266E0,-3.999235890E0,9.417916054E0
1.083766929E1,-8.854052746E-1,-8.630980300E0,-3.747907358E0,9.451167812E0
1.084760429E1,-1.477692698E0,-8.616623046E0,-3.787035756E0,9.527403017E0
1.085754029E1,-1.303949556E0,-8.256760252E0,-3.653349695E0,9.122573009E0
1.086747529E1,-1.091549886E0,-7.621910507E0,-3.559793075E0,8.482754722E0
1.087741129E1,-8.058656001E-1,-6.884059135E0,-3.470695542E0,7.751478380E0
1.088734629E1,-4.100639181E-1,-6.281654420E0,-2.970340236E0,6.960621796E0
1.089728229E1,-4.249718329E-1,-5.881010220E0,-2.814237119E0,6.533514585E0
1.090721729E1,-5.876594988E-1,-5.668563334E0,-3.144840446E0,6.509068704E0
1.091715329E1,-5.860374811E-1,-5.574226695E0,-3.448514714E0,6.580858372E0
1.092708829E1,-5.666080606E-1,-5.437205967E0,-3.681665129E0,6.590820249E0
1.093702429E1,-2.705872133E-1,-4.753507413E0,-4.084656986E0,6.273234641E0
1.094695929E1,3.987801075E-3,-3.884983050E0,-4.444378863E0,5.903017252E0
1.095689529E1,2.886703125E-1,-3.538785784E0,-4.526316480E0,5.752727723E0
1.096683029E1,1.400852537E-1,-3.661715891E0,-4.099093762E0,5.498213966E0
1.097676629E1,-2.199295682E-1,-3.974368266E0,-3.550208612E0,5.333662280E0
1.098670129E1,-1.316523993E-1,-4.255887142E0,-3.032984380E0,5.227705230E0
1.099663729E1,1.489759451E-1,-3.785726565E0,-2.921287359E0,4.784123670E0
1.100657229E1,3.577156967E-1,-2.884129180E0,-3.188423545E0,4.314186639E0
1.101650829E1,4.742314088E-1,-2.711372024E0,-3.536809425E0,4.481679885E0
1.102644429E1,7.778884274E-1,-2.534235304E0,-4.063102980E0,4.851418845E0
1.103637929E1,1.293188340E0,-1.730858864E0,-4.663134602E0,5.139361128E0
1.104631529E1,1.856531900E0,-1.167926363E0,-5.303699416E0,5.739337085E0
1.105625029E1,2.298993632E0,-1.187282401E0,-5.784871470E0,6.337172014E0
1.106618629E1,2.526970723E0,-1.311764359E0,-6.065022097E0,6.700059687E0
1.107612129E1,2.627870277E0,-1.182187137E0,-6.366246673E0,6.988015836E0
1.108605729E1,2.528427265E0,-1.043550239E0,-6.618913633E0,7.161840490E0
1.109599229E1,2.244333276E0,-1.102323527E0,-6.641354077E0,7.096459186E0
1.110592829E1,2.146567245E0,-1.003581011E0,-6.657108815E0,7.066259517E0
1.111586329E1,2.411819751E0,-5.544212937E-1,-6.791321125E0,7.228160216E0
1.112579929E1,2.858205550E0,4.290979207E-2,-6.831537105E0,7.405476313E0
1.113573429E1,3.355494869E0,5.286467671E-1,-6.810261426E0,7.610418774E0
1.114567029E1,3.679324781E0,6.975815982E-1,-6.747678677E0,7.717202761E0
1.115560529E1,3.794045398E0,5.205466193E-1,-6.645052441E0,7.669580902E0
1.116554129E1,3.636432531E0,2.733380359E-1,-6.576949335E0,7.520280433E0
1.117547629E1,3.308275679E0,9.544468582E-2,-6.559940370E0,7.347558459E0
1.118541229E1,2.785570267E0,-1.228710508E-1,-6.533136733E0,7.103265065E0
1.119534729E1,2.380959316E0,-1.830260360E-1,-6.764457262E0,7.173586819E0
1.120528329E1,2.304171342E0,-1.555096239E-1,-7.028395314E0,7.398089585E0
1.121521829E1,2.173581381E0,-1.849930394E-1,-6.967081411E0,7.300609689E0
1.122515429E1,2.154417132E0,-3.640856534E-1,-6.490637416E0,6.848536019E0
1.123508929E1,2.311019016E0,-6.053230602E-1,-5.623126960E0,6.109564772E0
1.124502529E1,2.624803412E0,-5.276919168E-1,-4.724747298E0,5.430588250E0
1.125496129E1,2.991078848E0,-2.708558929E-1,-3.829689148E0,4.866871126E0
1.126489629E1,3.350877323E0,-3.017072645E-1,-2.623472586E0,4.266381899E0
1.127483233E1,3.802153732E0,-7.155942383E-1,-1.391287077E0,4.111462981E0
1.128476733E1,4.047514011E0,-1.411477513E0,-5.792205048E-1,4.325521336E0
1.129470333E1,3.756765890E0,-2.736796888E0,-7.352090156E-1,4.705728366E0
1.130463833E1,3.247638883E0,-4.487064999E0,-1.459874332E0,5.728188517E0
1.131457433E1,2.618847438E0,-6.385357128E0,-1.722583299E0,7.113258099E0
1.132450933E1,1.735294561E0,-7.791562207E0,-8.099785316E-1,8.023450259E0
1.133444533E1,7.332273942E-1,-7.891486444E0,2.590353956E0,8.338052191E0
1.134438033E1,-3.583571362E-1,-6.715260544E0,8.325553329E0,1.070224193E1
1.135431633E1,-6.848060167E-1,-4.950437543E0,1.379561071E1,1.467292288E1
1.136425133E1,-1.563446648E0,-4.069922295E0,1.592200681E1,1.650814750E1
1.137418733E1,-1.505145230E0,-4.719614905E0,1.535217343E1,1.613162906E1
1.138412233E1,-1.888823733E0,-5.266532759E0,1.357178163E1,1.467982558E1
1.139405833E1,-3.384143009E0,-4.783924337E0,1.004339278E1,1.162790155E1
1.140399333E1,-4.077808143E0,-4.219023955E0,6.037019196E0,8.418686546E0
1.141392933E1,-3.141128926E0,-4.167870174E0,3.013411703E0,6.026481794E0
1.142386433E1,-1.779786610E0,-3.991366415E0,2.370233184E0,4.971584414E0
1.143380033E1,-9.411754328E-1,-3.765416553E0,4.159670624E0,5.689203170E0
1.144373633E1,-7.129828718E-1,-3.533387634E0,6.798659381E0,7.695124568E0
1.145367133E1,-6.553720102E-1,-3.490823705E0,8.771379549E0,9.463216250E0
1.146360733E1,-4.566102397E-1,-3.349763136E0,1.008867128E1,1.064005142E1
1.147354233E1,-2.385245910E-1,-3.290500436E0,1.065135586E1,1.115059051E1
1.148347833E1,1.136549619E-1,-3.785299133E0,1.046100326E1,1.112537623E1
1.149341333E1,6.226270178E-1,-4.234773431E0,9.885141399E0,1.077204674E1
1.150334933E1,1.084218208E0,-4.543488291E0,9.178350436E0,1.029858882E1
1.151328433E1,2.020974900E0,-4.852027150E0,8.564581073E0,1.004880868E1
1.152322033E1,3.041598206E0,-5.144125977E0,8.374752971E0,1.028833510E1
1.153315533E1,3.063843646E0,-5.685707955E0,8.264210774E0,1.048864112E1
1.154309133E1,2.612127818E0,-6.462738011E0,7.894758546E0,1.053173333E1
1.155302633E1,2.094076498E0,-7.274566017E0,7.511607462E0,1.066436654E1
1.156296233E1,1.500840071E0,-7.990672764E0,6.820653682E0,1.061247798E1
1.157289733E1,1.116404207E0,-8.508453065E0,5.821741088E0,1.036980237E1
1.158283333E1,1.068067614E0,-8.776751971E0,4.703416071E0,1.001470251E1
1.159276833E1,9.212853979E-1,-8.676879188E0,3.405912486E0,9.366815846E0
1.160270433E1,1.004778740E0,-8.314717269E0,2.790469065E0,8.827843518E0
1.161263933E1,1.244761408E0,-8.245445305E0,2.369927375E0,8.669103472E0
1.162257533E1,1.783136918E0,-8.326257918E0,1.565094978E0,8.657694294E0
1.163251033E1,2.495730219E0,-8.073354732E0,5.480928522E-1,8.468065406E0
1.164244633E1,2.583592821E0,-7.700207064E0,-2.055910259E-1,8.124678969E0
1.165238233E1,2.027412246E0,-7.507816127E0,-1.668883055E-1,7.778531681E0
1.166231733E1,1.140789508E0,-7.983716331E0,-1.140031636E-1,8.065613670E0
1.167225333E1,4.902431318E-1,-8.678552077E0,-4.406952882E-1,8.703551965E0
1.168218833E1,4.092122711E-2,-8.817136350E0,-1.066461384E0,8.881492434E0
1.169212433E1,-3.318349700E-2,-8.584865649E0,-1.755564519E0,8.762592432E0
1.170205933E1,3.155574546E-1,-8.267660632E0,-2.187392505E0,8.557948048E0
1.171199533E1,2.828978864E-1,-7.881855496E0,-2.331292190E0,8.224268997E0
1.172193033E1,7.408623230E-3,-7.651038997E0,-2.412699757E0,8.022441819E0
1.173186633E1,-1.212458538E-1,-7.684500273E0,-2.532299876E0,8.091896419E0
1.174180133E1,8.173190530E-2,-7.722784333E0,-1.965292158E0,7.969344466E0
1.175173733E1,2.163173593E-1,-7.842896082E0,-8.940740642E-1,7.896656292E0
1.176167233E1,1.785554011E-1,-8.075170292E0,-5.630536844E-1,8.096745441E0
1.177160833E1,3.173226193E-1,-8.048870686E0,-8.916028847E-1,8.104317902E0
1.178154333E1,7.449393672E-1,-7.470552991E0,-1.139939908E0,7.593652589E0
1.179147933E1,9.390329399E-1,-6.771066955E0,-1.540159526E0,7.007226408E0
1.180141433E1,1.105802912E0,-6.265639481E0,-1.916925452E0,6.644971134E0
1.181135033E1,1.005612334E0,-5.903972236E0,-2.341777709E0,6.430557298E0
1.182128533E1,7.440383112E-1,-5.592131454E0,-2.972743149E0,6.376733415E0
1.183122133E1,5.513196382E-1,-5.295056062E0,-3.454708085E0,6.346383221E0
1.184115633E1,1.516052918E-1,-5.037078661E0,-3.498896663E0,6.134934675E0
1.185109233E1,-2.385260528E-1,-5.065486189E0,-3.098999738E0,5.943050091E0
1.186102833E1,-7.295842865E-1,-5.242070348E0,-2.166370010E0,5.718807024E0
1.187096333E1,-1.024384820E0,-5.609258534E0,-1.195138208E0,5.825933478E0
1.188089933E1,-8.602561077E-1,-5.659919980E0,-6.765100602E-1,5.764755034E0
1.189083433E1,-3.444211748E-1,-4.733904623E0,-9.826375274E-1,4.847066683E0
1.190077033E1,3.754020622E-1,-3.573452756E0,-1.703521961E0,3.976490711E0
1.191070533E1,1.123505650E0,-2.602034354E0,-2.483130054E0,3.768127200E0
1.192064133E1,1.487102184E0,-1.989807487E0,-2.835273939E0,3.769560326E0
1.193057633E1,1.306032334E0,-2.080844541E0,-2.627771459E0,3.597334750E0
1.194051233E1,1.076067774E0,-2.431799687E0,-2.191198457E0,3.445710704E0
1.195044733E1,1.103725689E0,-2.613612426E0,-1.933490906E0,3.433302695E0
1.196038333E1,1.389270957E0,-2.120502112E0,-2.050722756E0,3.260685023E0
1.197031833E1,1.884290387E0,-1.665471205E0,-2.258631911E0,3.380201578E0
1.198025433E1,2.457913352E0,-1.412014287E0,-2.686972178E0,3.905757530E0
1.199018933E1,2.822661495E0,-9.505040807E-1,-3.461765674E0,4.566694374E0
1.200012533E1,3.280475092E0,-7.208447456E-1,-4.478512276E0,5.598053786E0
1.201006033E1,3.992419791E0,-1.458120167E-1,-5.851954236E0,7.085622436E0
1.201999633E1,4.720386445E0,1.035679886E0,-7.485674475E0,8.910106810E0
1.202993133E1,5.605839667E0,2.099232280E0,-9.235442065E0,1.100570782E1
1.203986733E1,6.127010184E0,2.624836156E0,-1.059876366E1,1.252053553E1
1.204980333E1,5.917677525E0,2.536579453E0,-1.127391008E1,1.298284218E1
1.205973833E1,5.156105168E0,1.809114490E0,-1.115224589E1,1.241897356E1
1.206967433E1,4.266920253E0,8.563720948E-1,-1.053246209E1,1.139617213E1
1.207960933E1,3.720790896E0,-1.779067987E-1,-9.546187663E0,1.024722570E1
1.208954533E1,3.393666077E0,-1.136374202E0,-8.349289516E0,9.083994231E0
1.209948033E1,3.263706447E0,-1.692620412E0,-7.364319023E0,8.231035069E0
1.210941633E1,3.065688150E0,-1.880161083E0,-6.589989796E0,7.507423995E0
1.211935133E1,2.818193053E0,-2.067723389E0,-5.856591078E0,6.820362978E0
1.212928733E1,2.462231521E0,-2.072337427E0,-5.330969076E0,6.227069757E0
1.213922233E1,2.178191911E0,-2.100784716E0,-5.046428944E0,5.884238397E0
1.214915833E1,2.124124462E0,-2.097490979E0,-4.768882374E0,5.626154303E0
1.215909333E1,2.138143746E0,-1.726985668E0,-4.666485934E0,5.415739021E0
1.216902933E1,2.190721909E0,-1.221376346E0,-4.925501508E0,5.527349072E0
1.217896433E1,2.172780313E0,-1.074797174E0,-5.377782469E0,5.898873412E0
1.218890033E1,1.768873951E0,-1.261396444E0,-5.718138367E0,6.116955323E0
1.219883533E1,1.238775905E0,-1.172554434E0,-5.865854822E0,6.108821690E0
1.220877133E1,1.081504515E0,-7.088906980E-1,-5.497834577E0,5.647863585E0
1.221870633E1,1.324932874E0,-4.534334475E-1,-4.282624705E0,4.505765570E0
1.222864233E1,1.516609865E0,-3.696714985E-1,-2.389271134E0,2.854011046E0
1.223857833E1,1.691546863E0,-4.295838243E-1,-5.841052687E-1,1.840394528E0
1.224851333E1,2.069020594E0,-7.742409343E-1,4.315467346E-1,2.250894895E0
1.225844933E1,2.314703346E0,-1.238124526E0,8.464856225E-1,2.758141010E0
1.226838417E1,2.242740202E0,-1.690321287E0,1.011732030E0,2.985074767E0
1.227832017E1,2.129240776E0,-2.040851340E0,1.213598964E0,3.189288780E0
1.228825517E1,1.871647245E0,-2.438294774E0,1.964684340E0,3.648058301E0
1.229819117E1,1.262820241E0,-3.306954793E0,2.790754994E0,4.507657751E0
1.230812617E1,7.756515750E-1,-3.860736109E0,3.150955757E0,5.043356110E0
1.231806217E1,5.397594005E-1,-3.661204845E0,3.034464603E0,4.785784842E0
1.232799717E1,8.012439609E-2,-3.183100825E0,2.780035878E0,4.226955200E0
1.233793317E1,-5.452908665E-2,-2.691500262E0,2.854694297E0,3.923828056E0
1.234786817E1,-1.506827474E-2,-2.138200318E0,3.825533824E0,4.382560518E0
1.235780417E1,2.713912055E-1,-1.644005053E0,6.434957889E0,6.647186536E0
1.236773917E1,4.132785711E-1,-1.656853871E0,9.276259723E0,9.432123747E0
1.237767517E1,9.493539333E-2,-2.040122339E0,1.099009208E1,1.117824833E1
1.238761017E1,-3.796643901E-1,-2.363352619E0,1.203123794E1,1.226703987E1
1.239754617E1,-1.014529630E0,-2.772549103E0,1.279465276E1,1.313085824E1
1.240748117E1,-1.730685786E0,-3.394913288E0,1.282677736E1,1.338084179E1
1.241741717E1,-1.819116152E0,-3.784560922E0,1.238894955E1,1.308121385E1
1.242735317E1,-1.861952854E0,-3.933742397E0,1.166886611E1,1.245406094E1
1.243728817E1,-1.733766976E0,-4.024415170E0,1.102235585E1,1.186145833E1
1.244722417E1,-1.382143201E0,-4.065308257E0,1.048250932E1,1.132784413E1
1.245715917E1,-6.894642010E-1,-4.138028617E0,1.006057658E1,1.090017628E1
1.246709517E1,4.581825560E-1,-4.243612082E0,1.007208156E1,1.093914995E1
1.247703017E1,1.316585096E0,-4.571334486E0,1.036405994E1,1.140369386E1
1.248696617E1,1.809093147E0,-5.105311575E0,1.102269849E1,1.228156775E1
1.249690117E1,2.282391048E0,-5.911504619E0,1.174541318E1,1.334578310E1
1.250683717E1,2.833465396E0,-6.963983556E0,1.209588944E1,1.424205513E1
1.251677217E1,2.903084684E0,-8.117571961E0,1.146902816E1,1.434787378E1
1.252670817E1,2.525030617E0,-9.237268150E0,1.016381268E1,1.396445454E1
1.253664317E1,2.187071493E0,-1.008084888E1,9.249747863E0,1.385513014E1
1.254657917E1,1.804047439E0,-1.102688744E1,8.511582495E0,1.404613364E1
1.255651417E1,1.142598637E0,-1.181932783E1,7.098015187E0,1.383415562E1
1.256645017E1,5.500192905E-1,-1.206734567E1,5.078193358E0,1.310386968E1
1.257638517E1,2.121917832E-1,-1.184016965E1,2.868283226E0,1.218448568E1
1.258632117E1,3.166308937E-1,-1.133485093E1,1.149526929E0,1.139739062E1
1.259625717E1,9.510535727E-1,-1.088793654E1,4.091554070E-1,1.093705048E1
1.260619217E1,1.679023297E0,-1.062877157E1,-3.296777129E-2,1.076062225E1
1.261612817E1,2.103035602E0,-1.032968415E1,-2.109956074E-1,1.054370204E1
1.262606317E1,1.761335282E0,-1.010833196E1,1.053834906E-1,1.026117842E1
1.263599917E1,9.897147048E-1,-1.051225528E1,4.222721735E-1,1.056718316E1
1.264593417E1,4.821404258E-1,-1.121524847E1,2.547713721E-1,1.122849795E1
1.265587017E1,9.013890406E-2,-1.140320020E1,-2.366138671E-1,1.140601096E1
1.266580517E1,-2.143795738E-1,-1.110961151E1,-1.662922550E0,1.123542335E1
1.267574117E1,6.225501269E-2,-1.059405081E1,-2.992882714E0,1.100886621E1
1.268567617E1,3.883251763E-1,-1.008876484E1,-3.224751127E0,1.059872597E1
1.269561217E1,1.405937422E-1,-9.551571195E0,-3.312959883E0,1.011078543E1
1.270554717E1,-9.866957143E-2,-9.082851956E0,-3.634467866E0,9.783521452E0
1.271548317E1,-1.902499786E-1,-8.789630463E0,-3.400983868E0,9.426584217E0
1.272541817E1,-2.824063365E-1,-8.371724698E0,-3.005571756E0,8.899381402E0
1.273535417E1,-1.158169699E-1,-7.715115709E0,-2.806971077E0,8.210694892E0
1.274528917E1,-8.651043266E-2,-7.219012206E0,-2.412436048E0,7.611929385E0
1.275522517E1,-3.486767784E-1,-7.201044297E0,-2.030646487E0,7.490002644E0
1.276516017E1,-5.007304054E-1,-7.297014062E0,-1.590806062E0,7.485172616E0
1.277509617E1,-2.654314309E-1,-7.200828534E0,-8.050531295E-1,7.250551425E0
1.278503117E1,3.081886107E-1,-6.500639663E0,-6.362866983E-1,6.538972167E0
1.279496717E1,9.216603506E-1,-5.238883030E0,-1.183790444E0,5.449469059E0
1.280490317E1,1.573829548E0,-4.261930239E0,-1.671563127E0,4.840982555E0
1.281483817E1,1.906782287E0,-3.586097360E0,-2.027344272E0,4.539387377E0
1.282477417E1,1.917581802E0,-2.827290151E0,-3.067308706E0,4.591195080E0
1.283470917E1,1.762319223E0,-2.601601076E0,-4.590143517E0,5.562689521E0
1.284464517E1,1.501901779E0,-2.958281230E0,-5.521799390E0,6.441847972E0
1.285458017E1,1.501106558E0,-3.152430425E0,-5.742006117E0,6.720250942E0
1.286451617E1,1.433211613E0,-3.278863015E0,-5.562418828E0,6.614041232E0
1.287445117E1,1.248113324E0,-3.500240353E0,-5.230212779E0,6.415964083E0
1.288438717E1,1.160689264E0,-3.568800711E0,-5.086605747E0,6.321162560E0
1.289432217E1,1.610523165E0,-2.865970067E0,-5.604502993E0,6.497539772E0
1.290425817E1,2.434768319E0,-1.602131826E0,-6.639928526E0,7.251453232E0
1.291419317E1,3.369097831E0,-3.536834568E-1,-8.140892411E0,8.817598394E0
1.292412917E1,4.052364276E0,5.912850648E-1,-9.550444436E0,1.039145145E1
1.293406417E1,4.550391514E0,1.027594941E0,-1.045667632E1,1.145006961E1
1.294400017E1,4.852583220E0,1.118998032E0,-1.067479384E1,1.177925906E1
1.295393517E1,5.076438024E0,8.893644243E-1,-1.035017163E1,1.156232005E1
1.296387117E1,5.026322123E0,2.307521796E-1,-9.818015363E0,1.103225210E1
1.297380717E1,4.582258839E0,-7.278029323E-1,-9.111469399E0,1.022475759E1
1.298374217E1,3.899661900E0,-1.515688344E0,-8.153925855E0,9.164670258E0
1.299367817E1,3.305132800E0,-2.085821106E0,-7.219179436E0,8.209208503E0
1.300361317E1,2.728965127E0,-2.363764994E0,-6.389291135E0,7.338778973E0
1.301354917E1,2.059777608E0,-2.580135947E0,-5.680995684E0,6.570654249E0
1.302348417E1,1.559993282E0,-2.693225775E0,-5.161923147E0,6.027644208E0
1.303342017E1,1.387254837E0,-2.213854664E0,-4.843606575E0,5.503285665E0
1.304335517E1,1.512923781E0,-1.151299220E0,-4.896536155E0,5.252665474E0
1.305329117E1,1.913388471E0,1.776004046E-1,-4.977195572E0,5.335266920E0
1.306322617E1,2.293108410E0,1.146524969E0,-5.086900447E0,5.696439400E0
1.307316217E1,2.612881524E0,1.355968725E0,-5.128682896E0,5.913475229E0
1.308309717E1,2.920812857E0,7.215487504E-1,-4.916313778E0,5.763846069E0
1.309303317E1,2.527622688E0,-4.716165340E-1,-4.341639483E0,5.045902497E0
1.310296817E1,1.764492633E0,-1.576235093E0,-3.820977674E0,4.494198672E0
1.311290417E1,1.310937563E0,-2.467761818E0,-3.294828252E0,4.320219774E0
1.312283917E1,1.149685096E0,-3.095448139E0,-1.988115302E0,3.854371214E0
1.313277517E1,1.249381293E0,-3.255373580E0,6.572211921E-2,3.487510596E0
1.314271017E1,1.377126875E0,-2.969306155E0,1.807113572E0,3.738838983E0
1.315264617E1,1.633392795E0,-2.391258602E0,2.373262627E0,3.744124093E0
1.316258217E1,1.520109424E0,-2.175914713E0,1.596870502E0,3.097633435E0
1.317251717E1,1.146031464E0,-2.587660729E0,5.247273785E-1,2.878318083E0
1.318245317E1,6.812889165E-1,-2.897240977E0,3.761806190E-1,2.999945287E0
1.319238817E1,4.132768169E-1,-3.018314593E0,1.070013567E0,3.228923930E0
1.320232417E1,5.011277238E-1,-2.833988721E0,2.518001094E0,3.823996676E0
1.321225917E1,7.029519734E-1,-2.289476996E0,4.136759478E0,4.780023575E0
1.322219517E1,5.126429379E-1,-2.031924981E0,4.730416759E0,5.173815287E0
1.323213017E1,2.000016725E-1,-2.068031099E0,4.880707743E0,5.304532153E0
1.324206617E1,-3.428213766E-1,-2.101869959E0,5.260725889E0,5.675440133E0
1.325200117E1,-1.048977624E0,-2.339543196E0,6.120841371E0,6.636152162E0
1.326193717E1,-1.563641360E0,-2.564929678E0,7.082458670E0,7.693182655E0
1.327187196E1,-1.698407109E0,-2.493583414E0,7.801147547E0,8.364236248E0
1.328180796E1,-1.643860773E0,-2.230317207E0,8.443130311E0,8.886115154E0
1.329174296E1,-1.669384162E0,-2.064954733E0,9.345893630E0,9.715791747E0
1.330167896E1,-1.566027024E0,-1.892268620E0,1.079940502E1,1.107520970E1
1.331161396E1,-1.303192634E0,-2.085452147E0,1.196050534E1,1.221069653E1
1.332154996E1,-1.062071879E0,-2.816788552E0,1.243699144E1,1.279613420E1
1.333148496E1,-6.691068274E-1,-3.463942593E0,1.269022149E1,1.317149663E1
1.334142096E1,-4.329310629E-1,-4.094392893E0,1.271655501E1,1.336646003E1
1.335135696E1,-6.041547865E-2,-4.733620448E0,1.253387980E1,1.339809522E1
1.336129196E1,4.391826135E-1,-5.391471970E0,1.205389006E1,1.321200654E1
1.337122796E1,9.778482923E-1,-5.970870230E0,1.141340710E1,1.291794644E1
1.338116296E1,1.246915522E0,-6.603026748E0,1.077751305E1,1.270076958E1
1.339109896E1,1.622730105E0,-7.247860029E0,1.044869020E1,1.281951071E1
1.340103396E1,2.204953448E0,-7.737657895E0,1.034235624E1,1.310333935E1
1.341096996E1,2.474572070E0,-8.399892490E0,1.018290501E1,1.343031106E1
1.342090496E1,2.438567108E0,-9.159025973E0,9.754472501E0,1.360088600E1
1.343084096E1,2.537446010E0,-9.791077241E0,9.308487822E0,1.374597291E1
1.344077596E1,2.811341870E0,-1.040488870E1,8.672375078E0,1.383385129E1
1.345071196E1,2.474430567E0,-1.132702151E1,7.196404531E0,1.364596868E1
1.346064696E1,1.587423448E0,-1.204266808E1,5.045385801E0,1.315301051E1
1.347058296E1,5.303420942E-1,-1.216693077E1,2.991506279E0,1.254051741E1
1.348051796E1,-2.661047744E-1,-1.205186692E1,1.313336091E0,1.212613540E1
1.349045396E1,-3.864186551E-1,-1.173813573E1,-1.580502391E-2,1.174450508E1
1.350038996E1,1.567219710E-1,-1.128598809E1,-5.472496837E-1,1.130033500E1
1.351032496E1,1.094022235E0,-1.076126948E1,-2.081176078E-1,1.081873923E1
1.352026096E1,1.420008747E0,-1.046649965E1,4.412367404E-1,1.057160014E1
1.353019596E1,1.064881612E0,-1.076090929E1,6.550629848E-1,1.083329355E1
1.354013196E1,7.685534938E-1,-1.114320727E1,2.741274101E-1,1.117304294E1
1.355006696E1,7.900647423E-1,-1.086226493E1,1.444379210E-2,1.089096921E1
1.356000296E1,4.660434066E-1,-1.056218348E1,-1.649996549E-1,1.057374774E1
1.356993796E1,3.685514644E-1,-1.069983396E1,-6.379078388E-1,1.072516682E1
1.357987396E1,4.744924870E-1,-1.058796035E1,-9.563600671E-1,1.064164799E1
1.358980896E1,3.981871267E-1,-1.015770351E1,-1.645118802E0,1.029776235E1
1.359974496E1,6.172911412E-1,-9.492612550E0,-2.805902206E0,9.917854030E0
1.360967996E1,9.311097434E-1,-8.789278461E0,-3.284023182E0,9.428848789E0
1.361961596E1,3.461468343E-1,-8.290465357E0,-3.667141230E0,9.071910398E0
1.362955096E1,-2.759511566E-1,-7.856004370E0,-4.628205675E0,9.122129218E0
1.363948696E1,-7.735670426E-1,-7.480809007E0,-5.108691266E0,9.091734478E0
1.364942196E1,-1.240334042E0,-7.155957001E0,-4.880958588E0,8.750423183E0
1.365935796E1,-9.808584389E-1,-6.569568980E0,-4.433162734E0,7.985878266E0
1.366929396E1,-4.917572683E-1,-5.609195969E0,-4.093400913E0,6.961381735E0
1.367922896E1,-1.031744125E-1,-4.799768245E0,-4.152667121E0,6.347681811E0
1.368916496E1,2.466519284E-1,-4.334949684E0,-4.531335438E0,6.275796904E0
1.369909996E1,4.419115090E-1,-4.230775689E0,-4.404130723E0,6.122998950E0
1.370903596E1,2.248032224E-1,-4.354138491E0,-3.287624775E0,5.460543485E0
1.371897096E1,-2.889053705E-1,-4.381957204E0,-2.102935322E0,4.869019637E0
1.372890696E1,-4.953483358E-1,-4.377238501E0,-2.112138255E0,4.885357190E0
1.373884196E1,1.990900916E-1,-3.392117150E0,-3.155809238E0,4.637372917E0
1.374877796E1,1.125293144E0,-1.715087754E0,-4.675386858E0,5.105590361E0
1.375871296E1,1.972897339E0,-5.866324353E-1,-6.195314434E0,6.528275611E0
1.376864896E1,2.331348031E0,-1.065742761E-1,-7.377772297E0,7.738091869E0
1.377858396E1,2.236563495E0,5.401950181E-2,-8.080675446E0,8.384655630E0
1.378851996E1,2.174264336E0,1.625894326E-1,-8.345547298E0,8.625660580E0
1.379845496E1,2.183709344E0,2.561630094E-1,-8.452656595E0,8.733934365E0
1.380839096E1,2.272876459E0,3.199812752E-1,-8.471249571E0,8.776697825E0
1.381832596E1,2.499832041E0,3.565064925E-1,-8.114179991E0,8.498010005E0
1.382826196E1,2.596239179E0,3.756514460E-1,-7.463670233E0,7.911254340E0
1.383819696E1,2.634044936E0,3.429000217E-1,-6.638934499E0,7.150610074E0
1.384813296E1,2.577284845E0,4.654570770E-1,-6.028465304E0,6.572780339E0
1.385806896E1,2.607289832E0,6.061188662E-1,-5.640936409E0,6.243837275E0
1.386800396E1,2.446576186E0,6.459506840E-1,-5.266084278E0,5.842484997E0
1.387793996E1,1.814364997E0,3.471392530E-1,-4.592202029E0,4.949822773E0
1.388787496E1,9.760900345E-1,-2.009834200E-1,-3.481912841E0,3.621721016E0
1.389781096E1,2.786952549E-1,-5.527834886E-1,-2.371607280E0,2.451073585E0
1.390774596E1,-2.103144068E-1,-5.284608257E-1,-1.637874101E0,1.733820800E0
1.391768196E1,-3.098521435E-1,-1.517568809E-1,-1.259199060E0,1.305611265E0
1.392761696E1,-2.439268336E-1,3.757806695E-1,-1.120911825E0,1.207126643E0
1.393755296E1,-1.823468819E-1,7.253254670E-1,-1.308036759E0,1.506753989E0
1.394748796E1,-1.387567663E-1,7.988197052E-1,-1.722637094E0,1.903902550E0
1.395742396E1,-4.045951635E-1,5.646246850E-1,-1.952275963E0,2.072167879E0
1.396735896E1,-8.759175825E-1,-7.655993342E-2,-1.972245374E0,2.159362140E0
1.397729496E1,-1.302721348E0,-7.137128967E-1,-1.467642943E0,2.088167813E0
1.398722996E1,-1.697472724E0,-1.045333055E0,-2.869983011E-1,2.014076182E0
1.399716596E1,-1.679897456E0,-1.195170879E0,9.529865161E-1,2.271271052E0
1.400710096E1,-1.205610498E0,-1.024005336E0,1.904983683E0,2.476094997E0
1.401703696E1,-5.371813631E-1,-5.106303263E-1,2.289319414E0,2.406302252E0
1.402697296E1,1.854958999E-1,8.469808817E-2,2.065751123E0,2.075791463E0
1.403690796E1,6.296246731E-1,5.503949010E-1,1.239319696E0,1.495083638E0
1.404684396E1,7.400066561E-1,7.737193626E-1,9.275145829E-2,1.074641492E0
1.405677896E1,6.331856275E-1,5.416579914E-1,-7.705969495E-1,1.134961267E0
1.406671496E1,2.808563858E-1,-1.225254804E-1,-7.234198594E-1,7.856392911E-1
1.407664996E1,-3.783762485E-1,-7.892150688E-1,4.206282288E-1,9.710597907E-1
1.408658596E1,-8.592957026E-1,-1.142961091E0,1.508780444E0,2.078741828E0
1.409652096E1,-9.639126232E-1,-1.103616931E0,2.078203354E0,2.542838386E0
1.410645696E1,-8.812881039E-1,-8.378399295E-1,2.244596400E0,2.552813638E0
1.411639196E1,-5.980754364E-1,-4.704722339E-1,2.038491404E0,2.175887303E0
1.412632796E1,-4.491892460E-1,-2.046630728E-1,1.363618637E0,1.450211619E0
1.413626296E1,-2.595574643E-1,-1.548576593E-1,9.927391040E-1,1.037729204E0
1.414619896E1,-7.448358715E-2,-6.593788147E-2,1.521947204E0,1.525194709E0
1.415613396E1,-1.717787705E-1,-3.011257589E-2,2.500595103E0,2.506669221E0
1.416606996E1,1.007520427E0,-1.427521688E-1,6.598381720E0,6.676385018E0
1.417600496E1,-4.977059332E-1,4.917274475E-2,5.456960785E0,5.479831217E0
1.418594096E1,-2.013638983E0,6.630391717E-2,3.414480411E0,3.964569919E0
1.419587696E1,-7.321915600E-1,-2.109698796E-1,3.057151800E0,3.150680863E0
1.420581196E1,-1.322315952E0,1.560820663E-1,9.070224309E-1,1.611077521E0
1.421574796E1,-1.435717438E0,7.369725358E-1,1.939346015E-2,1.613935930E0
1.422568296E1,-1.286571338E0,5.475695264E-1,-4.532094991E-1,1.469862934E0
1.423561896E1,-1.344961926E0,3.484396738E-1,-6.463921487E-1,1.532369276E0
1.424555396E1,-1.383885671E0,1.970190078E-1,-2.954451889E-1,1.428721072E0
1.425548996E1,-9.983383977E-1,1.088751554E-2,3.254343885E-1,1.050097917E0
1.426542496E1,-9.210583797E-1,-1.042780745E-1,1.110670427E0,1.446655195E0
1.427536129E1,-8.575225344E-1,-1.423621595E-1,1.452040817E0,1.692345832E0
1.428529629E1,-9.142326325E-1,-1.929505152E-1,1.235459949E0,1.549003710E0
1.429523229E1,-8.699285719E-1,-1.735190481E-1,8.436678493E-1,1.224197705E0
1.430516729E1,-7.787997159E-1,-5.002760768E-2,5.183229232E-1,9.368513285E-1
1.431510329E1,-8.254297990E-1,-3.032541454E-2,3.410692585E-1,8.936342780E-1
1.432503829E1,-8.059123778E-1,-8.092663407E-2,3.324557251E-1,8.755402275E-1
1.433497429E1,-7.662846279E-1,-1.507821500E-1,5.404394317E-1,9.497379465E-1
1.434490929E1,-7.102285409E-1,-1.512698078E-1,7.211897314E-1,1.023436253E0
1.435484529E1,-5.620342223E-1,-1.058574075E-1,8.899000293E-1,1.057832841E0
1.436478129E1,-4.576089442E-1,-8.148679733E-3,8.500816602E-1,9.654590492E-1
1.437471629E1,-3.975188631E-1,1.428702825E-1,5.565871024E-1,6.987291082E-1
1.438465229E1,-3.043540066E-1,2.722598094E-1,2.267006439E-1,4.670652493E-1
1.439458729E1,-2.165146481E-1,4.045407844E-1,-8.510914743E-2,4.666641255E-1
1.440452329E1,-2.664953318E-1,4.560570931E-1,-2.696279776E-1,5.930489696E-1
1.441445829E1,-3.491634129E-1,3.829318142E-1,-3.236147350E-1,6.109651053E-1
1.442439429E1,-4.657266337E-1,2.191594899E-1,-2.406450838E-1,5.681920764E-1
1.443432929E1,-6.419584975E-1,2.158756936E-1,7.200085938E-2,6.810999569E-1
1.444426529E1,-7.204592679E-1,1.631712306E-1,3.529969937E-1,8.187144098E-1
1.445420029E1,-6.595727961E-1,9.379460156E-2,4.757335585E-1,8.186306367E-1
1.446413629E1,-4.689338315E-1,1.708573955E-1,4.366630483E-1,6.631484039E-1
1.447407129E1,-4.105765727E-1,2.713891590E-1,2.467519158E-1,5.505558152E-1
1.448400729E1,-4.950713240E-1,2.929601222E-1,8.051732898E-2,5.808651214E-1
1.449394229E1,-5.742382385E-1,2.538071662E-1,8.121373236E-2,6.330586880E-1
1.450387829E1,-6.619866729E-1,1.648996675E-1,2.115265346E-1,7.142560677E-1
1.451381429E1,-8.532922201E-1,7.551971376E-2,4.334418172E-1,9.600430453E-1
1.452374929E1,-8.653808999E-1,2.815200448E-2,5.256833982E-1,1.012926292E0
1.453368529E1,-7.856577690E-1,4.788051009E-2,5.073032606E-1,9.364332712E-1
1.454362029E1,-6.961534157E-1,1.185441113E-1,4.119480371E-1,8.175472279E-1
1.455355629E1,-7.240004879E-1,1.321190071E-1,2.638918591E-1,7.818382517E-1
1.456349129E1,-8.464995097E-1,7.996476710E-2,7.236280203E-2,8.533417598E-1
1.457342729E1,-9.801295835E-1,7.009525180E-2,-1.170846462E-2,9.827026167E-1
1.458336229E1,-1.048064289E0,4.856229544E-2,-3.001083434E-2,1.049617883E0
1.459329829E1,-9.805716330E-1,6.324933171E-2,-2.602069438E-2,9.829538554E-1
1.460323329E1,-7.263553078E-1,1.652551782E-1,2.223462224E-2,7.452487408E-1
1.461316929E1,-4.894378240E-1,3.005667651E-1,4.092583179E-2,5.758165399E-1
1.462310429E1,-4.289589031E-1,3.305740911E-1,9.204686880E-3,5.416361292E-1
1.463304029E1,-5.094614679E-1,2.873608285E-1,-5.745240211E-2,5.877312409E-1
1.464297529E1,-5.651247682E-1,2.082526785E-1,-9.467285335E-2,6.096705101E-1
1.465291129E1,-5.830953084E-1,1.865659404E-1,-2.083895034E-1,6.467094973E-1
1.466284629E1,-6.089828324E-1,1.537595522E-1,-3.830253696E-1,7.356701189E-1
1.467278229E1,-4.718293726E-1,2.449077040E-1,-1.752273121E0,1.831137306E0
1.468271829E1,-1.660112232E-2,2.809429246E-1,-5.076084852E-1,5.804058050E-1
1.469265329E1,-1.469161172E-1,8.923611224E-2,9.346060860E-1,9.502820451E-1
1.470258929E1,-4.104698610E-1,9.498217106E-2,9.287424982E-1,1.019838099E0
1.471252429E1,-4.409114890E-1,1.707638401E-1,8.613433975E-1,9.825862194E-1
1.472246029E1,-4.411814842E-1,1.949473393E-1,8.232330000E-1,9.541268990E-1
1.473239529E1,-3.786165690E-1,1.786417937E-1,4.906971681E-1,6.450171375E-1