"Time (s)","Linear Acceleration x (m/s^2)","Linear Acceleration y (m/s^2)","Linear Acceleration z (m/s^2)","Absolute acceleration (m/s^2)"
3.504958324E-3,8.660099141E-1,5.597662336E-1,2.805131543E-1,1.068643550E0
1.343995833E-2,9.376096545E-1,8.620181662E-1,-2.270199019E-1,1.293725326E0
2.337595832E-2,9.831150256E-1,1.183854178E0,-6.931880003E-1,1.687760490E0
3.331095833E-2,8.914605050E-1,1.247591168E0,-1.060602474E0,1.864420328E0
4.324695832E-2,7.432160465E-1,7.481214219E-1,-1.367857284E0,1.727162211E0
5.318195833E-2,7.159877560E-1,3.252256429E-1,-1.417891324E0,1.621365471E0
6.311795831E-2,6.884564334E-1,6.421266049E-2,-1.115028942E0,1.312015650E0
7.305395833E-2,5.458405048E-1,-2.048785427E-1,-1.047322862E0,1.198666864E0
8.298895831E-2,3.479593250E-1,-1.924464852E-1,-1.318514385E0,1.377167937E0
9.292495833E-2,2.143016231E-1,2.416268313E-1,-1.523650498E0,1.557504270E0
1.028599583E-1,-4.551092595E-2,5.314803278E-1,-1.766480101E0,1.845262727E0
1.127959583E-1,-1.282427417E-1,5.355494052E-1,-1.782992638E0,1.866098099E0
1.227309583E-1,1.153711197E-1,6.940963653E-1,-1.581871224E0,1.731299174E0
1.326669583E-1,2.019134928E-1,8.572798750E-1,-1.080094167E0,1.393664684E0
1.426029583E-1,3.797233008E-2,9.693783081E-1,-1.047883610E0,1.428004294E0
1.525379583E-1,-9.524763465E-2,7.696786442E-1,-9.548690271E-1,1.230143157E0
1.624739583E-1,1.628405705E-1,4.555258736E-1,-4.516933161E-1,6.618517392E-1
1.724089583E-1,1.214331986E0,7.254848036E-1,4.793009448E-1,1.493539343E0
1.823449583E-1,1.244874844E0,1.451376573E0,7.757366520E-1,2.063486052E0
1.922799583E-1,1.139223185E0,4.216833588E-1,3.705175906E-1,1.270011656E0
2.022159583E-1,1.086650211E0,-5.308190078E-1,-1.012129641E-1,1.213598601E0
2.121509583E-1,5.530858628E-1,-1.813674733E-1,-1.102381414E-1,5.924108201E-1
2.220869583E-1,-4.790799201E-2,3.715636575E-1,3.486215222E-1,5.117535472E-1
2.320229583E-1,-1.943220527E-1,2.676144889E-1,6.852644384E-1,7.608981044E-1
2.419579583E-1,-1.511729633E-1,-1.013033035E-1,7.018453878E-1,7.250534963E-1
2.518939583E-1,-2.584538023E-1,-2.420451996E-1,4.620884961E-1,5.821597932E-1
2.618289583E-1,-6.158882479E-1,-2.073282337E-1,5.402359486E-2,6.520903919E-1
2.717649583E-1,-7.081929789E-1,5.145014754E-1,1.127273011E-1,8.825851279E-1
2.816999583E-1,3.570701641E-1,1.764026025E0,5.456411147E-1,1.880694325E0
2.916359583E-1,2.610950773E0,2.670858421E0,8.452658933E-1,3.829493841E0
3.015719583E-1,3.814160405E0,2.196857685E0,1.206706851E0,4.564005336E0
3.115069583E-1,3.723179776E0,2.122467361E0,2.434645527E0,4.928938444E0
3.214429583E-1,3.645030569E0,2.522574787E0,3.376649510E0,5.572377708E0
3.313779583E-1,3.562991502E0,2.469261044E0,3.433586188E0,5.530069860E0
3.413139583E-1,3.171739977E0,2.677720421E0,3.371357195E0,5.347538731E0
3.512489583E-1,2.574967301E0,3.025874166E0,3.442996697E0,5.257432579E0
3.611849583E-1,1.886167051E0,2.845208359E0,3.664548867E0,5.008168842E0
3.711199583E-1,1.249150328E0,2.157057004E0,3.980819499E0,4.696828222E0
3.810559583E-1,6.336301620E-1,1.495012297E0,3.890618012E0,4.215857857E0
3.909919583E-1,-1.637490634E-1,1.246928678E0,3.418609130E0,3.642599795E0
4.009269583E-1,-7.342114806E-1,1.196164760E0,2.719807218E0,3.060592742E0
4.108629583E-1,-9.684597836E-1,1.291515159E0,1.833791494E0,2.443095782E0
4.207979583E-1,-9.062361266E-1,1.350500409E0,1.122726801E0,1.976266870E0
4.307339583E-1,-6.017023546E-1,1.305636039E0,6.316437167E-1,1.570256340E0
4.406689583E-1,-2.883637722E-1,1.396799978E0,6.581362814E-1,1.570779173E0
4.506049583E-1,1.287124924E-1,1.278883127E0,2.181640599E0,2.532126510E0
4.605409583E-1,5.209253727E-1,1.953551826E-1,3.445260154E0,3.489891749E0
4.704759583E-1,2.855801686E-1,-1.102993325E0,4.740613718E0,4.875609575E0
4.804119583E-1,-5.847348311E-1,-1.312324230E0,6.945713931E0,7.092746416E0
4.903469583E-1,-1.788487705E0,-1.833509950E0,8.319554670E0,8.704908783E0
5.002829583E-1,-2.149137389E0,-3.006468135E0,9.312931706E0,1.001939814E1
5.102179583E-1,-1.953201870E0,-4.145220984E0,9.909119661E0,1.091734890E1
5.201539583E-1,-1.531088448E0,-5.042972070E0,1.027083778E1,1.154408540E1
5.300899583E-1,-1.141914366E0,-6.064670094E0,1.018294945E1,1.190700009E1
5.400249583E-1,-8.383397202E-1,-7.098536174E0,1.013955141E1,1.240574593E1
5.499609583E-1,-5.328047222E-1,-8.459030060E0,1.075367044E1,1.369235182E1
5.598959583E-1,2.465932735E-1,-1.010781507E1,1.158648703E1,1.537775716E1
5.698319583E-1,1.145084069E0,-1.164758341E1,1.181832679E1,1.663280689E1
5.797669583E-1,1.619992731E0,-1.301858474E1,1.129608155E1,1.731211667E1
5.897029583E-1,1.926555377E0,-1.415930284E1,1.024423061E1,1.758242683E1
5.996379583E-1,1.607776144E0,-1.528142095E1,8.616248825E0,1.761665445E1
6.095739583E-1,5.972402347E-1,-1.589545812E1,6.383877198E0,1.713990002E1
6.195099583E-1,-1.270211121E-1,-1.637292888E1,4.088522873E0,1.687616526E1
6.294449583E-1,-1.163970868E-1,-1.671782105E1,2.265429153E0,1.687101829E1
6.393809583E-1,2.470842569E-1,-1.684347888E1,1.037832831E0,1.687723107E1
6.493159583E-1,6.269082029E-1,-1.654789161E1,1.335562527E-2,1.655976778E1
6.592519583E-1,9.695263888E-1,-1.600907185E1,-1.016545458E0,1.607058579E1
6.691864583E-1,1.738716060E0,-1.539619127E1,-1.285874058E0,1.554732489E1
6.791224583E-1,2.077980283E0,-1.444019607E1,-2.983999331E-1,1.459199462E1
6.890584583E-1,1.852981909E0,-1.385416122E1,-1.348239291E-1,1.397817951E1
6.989934583E-1,1.525082627E0,-1.347469797E1,-7.810792530E-1,1.358320460E1
7.089294583E-1,3.872793652E-1,-1.317259339E1,-1.945110201E0,1.332106060E1
7.188644583E-1,-4.732327044E-2,-1.266291265E1,-3.366416298E0,1.310283767E1
7.288004583E-1,5.570652585E-1,-1.177702673E1,-3.728941330E0,1.236582726E1
7.387354583E-1,1.760756993E0,-1.066986113E1,-3.906535010E0,1.149813974E1
7.486714583E-1,2.793550547E0,-9.148461809E0,-4.779996762E0,1.069329917E1
7.586074583E-1,3.468746080E0,-7.564728831E0,-5.587048470E0,1.002359378E1
7.685424583E-1,3.941933469E0,-6.635457160E0,-5.875582834E0,9.700031177E0
7.784784583E-1,3.898463514E0,-6.426059012E0,-6.226833265E0,9.760415191E0
7.884134583E-1,3.655142744E0,-6.360406474E0,-6.590852845E0,9.861753405E0
7.983494583E-1,3.815966610E0,-5.772124540E0,-7.216962172E0,9.998178127E0
8.082844583E-1,4.296380280E0,-5.008650084E0,-7.978448575E0,1.035379644E1
8.182204583E-1,5.097952269E0,-4.434189797E0,-8.477114913E0,1.084032443E1
8.281554583E-1,5.784512451E0,-3.786132946E0,-8.805520856E0,1.119520364E1
8.380914583E-1,6.148437890E0,-2.943467894E0,-9.138108144E0,1.140054000E1
8.480274583E-1,6.374142753E0,-2.252060956E0,-9.484398966E0,1.164711544E1
8.579624583E-1,6.546468970E0,-1.687252668E0,-9.850121255E0,1.194688103E1
8.678984583E-1,6.674153448E0,-1.166529463E0,-1.035341333E1,1.237328908E1
8.778334583E-1,6.681309856E0,-5.851905119E-1,-1.099229414E1,1.287683501E1
8.877694583E-1,6.557417296E0,-1.107123506E-1,-1.142841106E1,1.317651540E1
8.977044583E-1,6.486851344E0,-4.432540298E-2,-1.135600733E1,1.307823029E1
9.076404583E-1,6.342000609E0,-2.552806646E-1,-1.086526806E1,1.258332984E1
9.175764583E-1,5.864842084E0,-4.337452877E-1,-1.019205005E1,1.176700437E1
9.275114583E-1,5.139807808E0,-7.319006610E-1,-9.401058016E0,1.073932934E1
9.374474583E-1,4.373242514E0,-8.601955891E-1,-8.411494535E0,9.519371138E0
9.473824583E-1,3.734138335E0,-8.083138293E-1,-7.364794986E0,8.296828644E0
9.573184583E-1,3.198353287E0,-1.032256342E0,-6.563137043E0,7.373586966E0
9.672534583E-1,2.824925829E0,-1.442190598E0,-5.932645812E0,6.727288160E0
9.771894583E-1,2.527384121E0,-1.701131619E0,-5.375644142E0,6.178921364E0
9.871244583E-1,1.981919008E0,-1.633123239E0,-4.364941222E0,5.064366331E0
9.970604583E-1,1.503043156E0,-1.648483289E0,-3.141068115E0,3.852654252E0
1.006996458E0,1.449728828E0,-1.718106671E0,-1.981336625E0,2.996547852E0
1.016931458E0,1.624462050E0,-1.894948107E0,-1.090927596E0,2.723936178E0
1.026867458E0,1.630776751E0,-2.050328507E0,-4.471962225E-1,2.657680241E0
1.036802458E0,1.498707445E0,-2.197530992E0,1.058264172E-1,2.662041641E0
1.046738458E0,1.472862460E0,-2.207409863E0,3.951033783E-1,2.682925420E0
1.056673458E0,1.486214869E0,-2.533234261E0,6.055388224E-1,2.998797713E0
1.066609458E0,1.033940194E0,-3.338661904E0,5.468503189E-1,3.537617971E0
1.076545458E0,5.911276285E-1,-3.851560366E0,5.630096841E-1,3.937121922E0
1.086480458E0,4.158536848E-1,-3.815515789E0,8.054668200E-1,3.921717968E0
1.096416458E0,4.967548835E-1,-3.622550656E0,1.162770288E0,3.836883294E0
1.106351458E0,3.769236539E-1,-3.611591220E0,1.369506199E0,3.880877453E0
1.116287458E0,7.557211943E-2,-3.336396693E0,1.328695557E0,3.592030891E0
1.126222458E0,1.229582474E-1,-2.612412577E0,1.080624509E0,2.829764572E0
1.136158458E0,3.721333225E-1,-1.986961062E0,7.946898168E-1,2.172102524E0
1.146094458E0,7.190630990E-1,-1.943706284E0,6.501460612E-1,2.172034935E0
1.156029458E0,1.029301159E0,-2.243248617E0,3.974025035E-1,2.499910795E0
1.165965458E0,1.188375684E0,-2.596437399E0,4.929506850E-1,2.897710184E0
1.175900458E0,1.315575575E0,-3.023697540E0,1.412674438E0,3.587357659E0
1.185836458E0,9.755222699E-1,-3.363307334E0,2.453472392E0,4.275863269E0
1.195771458E0,4.081434001E-1,-3.547729977E0,3.166323409E0,4.772690327E0
1.205707458E0,-1.068710954E-1,-3.392676728E0,4.014654998E0,5.257293178E0
1.215642458E0,-4.770624114E-1,-3.005505390E0,5.956932807E0,6.689222650E0
1.225578458E0,-9.012043051E-1,-3.088036501E0,9.198048536E0,9.744343770E0
1.235514458E0,-1.782549566E0,-3.433572155E0,1.265439326E1,1.323255718E1
1.245449458E0,-2.818483367E0,-3.417867703E0,1.577851965E1,1.638863480E1
1.255385458E0,-3.441686628E0,-3.351439825E0,1.845706950E1,1.907198915E1
1.265320458E0,-3.744093220E0,-3.921392200E0,1.987847734E1,2.060459687E1
1.275256458E0,-3.608447757E0,-4.873031810E0,1.922945511E1,2.016281920E1
1.285191458E0,-3.161262352E0,-5.519785609E0,1.715811405E1,1.829924836E1
1.295127458E0,-2.364360972E0,-6.101518663E0,1.504013443E1,1.640196258E1
1.305063458E0,-9.735206218E-1,-6.724862257E0,1.325208512E1,1.489259127E1
1.314998458E0,4.574009295E-1,-7.297976514E0,1.192470401E1,1.398814650E1
1.324934458E0,1.554241084E0,-7.750236425E0,1.116799712E1,1.368232399E1
1.334869458E0,2.349331727E0,-8.291514933E0,1.077915494E1,1.380067972E1
1.344805458E0,2.910960883E0,-9.113080307E0,1.021656158E1,1.399643013E1
1.354740458E0,3.010217662E0,-1.025507368E1,9.153733658E0,1.407191481E1
1.364676458E0,2.490962985E0,-1.143708365E1,7.656756404E0,1.398705464E1
1.374612458E0,1.460696743E0,-1.230101444E1,5.965579669E0,1.374906295E1
1.384547458E0,4.520048996E-1,-1.291307057E1,4.399790043E0,1.364953671E1
1.394483458E0,-7.365291707E-2,-1.352228027E1,2.896314778E0,1.382917669E1
1.404418458E0,2.948082809E-1,-1.403870285E1,1.354463652E0,1.410697209E1
1.414354458E0,1.152987019E0,-1.429959392E1,5.033780247E-2,1.434609003E1
1.424289458E0,2.152382593E0,-1.419766409E1,-1.052007651E0,1.439837270E1
1.434225458E0,3.033856785E0,-1.382806626E1,-1.850707489E0,1.427742350E1
1.444161458E0,3.628620066E0,-1.306872813E1,-2.155133416E0,1.373328579E1
1.454096458E0,3.755368406E0,-1.256551792E1,-2.052652191E0,1.327435171E1
1.464032458E0,3.401295817E0,-1.214180762E1,-2.226824373E0,1.280433725E1
1.473967458E0,2.613940455E0,-1.158622975E1,-3.012709745E0,1.225356375E1
1.483903458E0,1.635006334E0,-1.104090672E1,-4.263853973E0,1.194802568E1
1.493838458E0,1.224542540E0,-1.031866917E1,-5.358260955E0,1.169125307E1
1.503774458E0,1.703604845E0,-9.908002843E0,-6.119353255E0,1.176933618E1
1.513709458E0,2.034552135E0,-9.481649605E0,-6.199152546E0,1.150958617E1
1.523645458E0,1.591021093E0,-8.672000272E0,-5.388246646E0,1.033286692E1
1.533581458E0,1.199790180E0,-8.016549032E0,-4.560528539E0,9.300697577E0
1.543516458E0,1.542929937E0,-7.357378378E0,-4.212178035E0,8.617081477E0
1.553452458E0,2.006846858E0,-6.702019524E0,-3.993177590E0,8.055430918E0
1.563387458E0,1.490375455E0,-6.115561920E0,-4.528882823E0,7.754488779E0
1.573323458E0,1.444391490E0,-5.656757805E0,-5.051618348E0,7.720364213E0
1.583258458E0,1.885865335E0,-5.044193553E0,-5.408472165E0,7.632296366E0
1.593194458E0,1.928208531E0,-4.681790144E0,-5.615971137E0,7.561499779E0
1.603130458E0,1.753703350E0,-4.313523147E0,-5.165935507E0,6.954771530E0
1.613065458E0,1.873731777E0,-3.467519335E0,-5.080162700E0,6.429822250E0
1.623001458E0,2.297937333E0,-2.472499816E0,-5.691798999E0,6.617427535E0
1.632936458E0,2.996697730E0,-1.463968552E0,-6.809812360E0,7.582674039E0
1.642872458E0,3.743566970E0,-6.256731248E-1,-8.161686280E0,9.001049019E0
1.652807458E0,4.148485192E0,-1.201070720E-1,-9.115545493E0,1.001586365E1
1.662743458E0,4.370324754E0,9.820866466E-2,-9.248626952E0,1.022968640E1
1.672679458E0,4.577380507E0,3.417849576E-1,-9.125696844E0,1.021506594E1
1.682614458E0,4.643953981E0,3.169693744E-1,-9.257860290E0,1.036217908E1
1.692550458E0,4.568280778E0,-1.354858339E-1,-9.348430152E0,1.040580088E1
1.702485458E0,4.197817274E0,-7.618699801E-1,-9.147550228E0,1.009355195E1
1.712421458E0,3.358406782E0,-1.365511381E0,-8.580990114E0,9.315412432E0
1.722356458E0,2.751188932E0,-1.573965204E0,-7.708227689E0,8.334457457E0
1.732292458E0,2.665653815E0,-1.719469657E0,-6.580318501E0,7.304989920E0
1.742227458E0,2.787262452E0,-1.981233714E0,-5.359157917E0,6.357255114E0
1.752163458E0,2.644281949E0,-2.189229700E0,-4.320194235E0,5.518064147E0
1.762099458E0,2.296018569E0,-2.277332037E0,-3.818490268E0,5.003879535E0
1.772034458E0,2.096465963E0,-2.574504493E0,-3.517456895E0,4.836914918E0
1.781970458E0,2.052413625E0,-3.040466770E0,-3.261243600E0,4.908416209E0
1.791905458E0,1.976371462E0,-3.452587885E0,-3.091304217E0,5.038111652E0
1.801841458E0,1.815379781E0,-3.723015177E0,-3.067034764E0,5.153944897E0
1.811776458E0,1.637433806E0,-4.009198961E0,-3.149182881E0,5.354644581E0
1.821712458E0,1.510345159E0,-4.292236358E0,-3.439394227E0,5.703846781E0
1.831648458E0,1.173865964E0,-4.685410740E0,-3.792687090E0,6.141295504E0
1.841583458E0,7.729609787E-1,-5.072219258E0,-3.614497871E0,6.276103228E0
1.851519458E0,3.995373219E-2,-4.664195287E0,-1.158987139E0,4.806200700E0
1.861454458E0,8.395870775E-2,-4.322134926E0,4.662669164E-1,4.348023024E0
1.871390458E0,5.535860190E-1,-4.278964348E0,1.894087982E0,4.712065646E0
1.881325458E0,1.058533875E0,-4.079600607E0,2.952709419E0,5.146078894E0
1.891261458E0,1.548349721E0,-3.517315977E0,3.543985128E0,5.227688699E0
1.901197458E0,1.724658184E0,-3.058823519E0,3.206056994E0,4.754960422E0
1.911132458E0,1.585718984E0,-2.781605855E0,1.757822129E0,3.652639384E0
1.921068458E0,1.221667976E0,-2.630835400E0,7.989284635E-2,2.901749543E0
1.931003458E0,8.030172752E-1,-2.645769773E0,-8.992140591E-1,2.907493828E0
1.940939458E0,6.118181473E-1,-2.839293315E0,-1.242301192E0,3.158990381E0
1.950874458E0,8.420357452E-1,-2.905822643E0,-1.060781398E0,3.205945508E0
1.960810458E0,1.118829559E0,-2.981542916E0,-2.961135256E-1,3.198290319E0
1.970745458E0,1.220654507E0,-3.196963404E0,8.531327373E-1,3.526812711E0
1.980681458E0,9.717252342E-1,-3.469219120E0,2.285576611E0,4.266566732E0
1.990617458E0,4.280874852E-1,-3.739148229E0,4.414673545E0,5.801192195E0
2.000552458E0,-3.987105256E-1,-3.863902084E0,7.194381394E0,8.176052412E0
2.010488458E0,-1.192230899E0,-3.863785724E0,9.939948521E0,1.073092872E1
2.020423458E0,-2.028233780E0,-3.631383460E0,1.254806515E1,1.321947870E1
2.030359458E0,-2.986525328E0,-3.256734227E0,1.541566951E1,1.603647461E1
2.040294458E0,-3.758129461E0,-2.902026630E0,1.792899459E1,1.854707908E1
2.050230458E0,-3.958182589E0,-2.691386534E0,1.903872361E1,1.963119374E1
2.060166458E0,-3.602533298E0,-2.734439875E0,1.867495079E1,1.921481706E1
2.070101458E0,-3.079115696E0,-3.310091824E0,1.731485919E1,1.789530693E1
2.080037458E0,-2.488312149E0,-3.850785025E0,1.603484287E1,1.667742272E1
2.089972458E0,-1.737148129E0,-4.949689685E0,1.491774168E1,1.581316314E1
2.099908458E0,-8.068034204E-1,-5.785634531E0,1.380335476E1,1.498856569E1
2.109843458E0,1.456584908E-1,-6.253271450E0,1.281464088E1,1.425972093E1
2.119779458E0,1.214079021E0,-6.863077571E0,1.215720919E1,1.401333497E1
2.129715458E0,2.344511867E0,-7.539872317E0,1.177953519E1,1.418110926E1
2.139650458E0,3.033167398E0,-8.236677405E0,1.131922717E1,1.432368189E1
2.149586458E0,3.194548504E0,-9.140796694E0,1.055025282E1,1.432016547E1
2.159521458E0,3.006652322E0,-1.016245262E1,9.602557161E0,1.430120643E1
2.169457458E0,2.791631199E0,-1.154664176E1,8.823206930E0,1.479753767E1
2.179392458E0,2.306013215E0,-1.306378840E1,8.083405511E0,1.553453279E1
2.189328458E0,1.505158971E0,-1.439843174E1,7.139169061E0,1.614150164E1
2.199264458E0,6.941610501E-1,-1.534714950E1,5.648906164E0,1.636847575E1
2.209199458E0,9.935705781E-2,-1.595165337E1,3.856314737E0,1.641146795E1
2.219135458E0,1.491758468E-1,-1.647007569E1,2.173653302E0,1.661356119E1
2.229070458E0,3.412314456E-1,-1.666599367E1,5.833527321E-1,1.667969077E1
2.239006458E0,6.339668155E-1,-1.661177127E1,-5.795397627E-1,1.663396300E1
2.248941458E0,1.113373376E0,-1.633765848E1,-1.057191939E0,1.640964167E1
2.258877458E0,2.161533778E0,-1.588527577E1,-1.035869994E0,1.606509388E1
2.268813458E0,2.967039775E0,-1.547585607E1,-8.114011592E-1,1.577858733E1
2.278748458E0,3.088993982E0,-1.529950171E1,-8.565188599E-1,1.563170691E1
2.288684458E0,2.516239328E0,-1.489002705E1,-1.132030160E0,1.514350878E1
2.298619458E0,1.644777617E0,-1.398030554E1,-2.153274586E0,1.424046445E1
2.308555458E0,7.825408376E-1,-1.300841995E1,-3.766722821E0,1.356538095E1
2.318490458E0,9.842634188E-1,-1.276751934E1,-5.135892513E0,1.379694591E1
2.328426458E0,2.171517607E0,-1.268699148E1,-5.671655341E0,1.406566443E1
2.338361458E0,2.261365045E0,-1.139619875E1,-5.140345168E0,1.270473401E1
2.348297458E0,2.079077513E0,-9.503809968E0,-4.887530274E0,1.088728246E1
2.358233458E0,2.358732588E0,-8.060291467E0,-5.743831617E0,1.017465083E1
2.368168458E0,2.700062340E0,-7.322014418E0,-6.733506196E0,1.030739237E1
2.378104458E0,2.942256059E0,-6.627408468E0,-7.428566474E0,1.038089657E1
2.388039458E0,2.810504842E0,-5.931457073E0,-8.595114064E0,1.081467088E1
2.397975458E0,2.908559432E0,-5.159828675E0,-9.877923596E0,1.151767878E1
2.407910458E0,3.452945734E0,-4.458915918E0,-1.068943293E1,1.208589019E1
2.417846458E0,4.012166423E0,-3.939491964E0,-1.092575400E1,1.228776533E1
2.427782458E0,4.463465052E0,-3.494319463E0,-1.079141656E1,1.218964561E1
2.437717458E0,4.785870290E0,-2.969724816E0,-1.053300822E1,1.194437449E1
2.447653458E0,5.027036068E0,-2.467176511E0,-1.042340216E1,1.183238624E1
2.457588458E0,5.177703613E0,-2.463568779E0,-1.050922876E1,1.197170309E1
2.467524458E0,4.908342268E0,-2.934975983E0,-1.031368617E1,1.179313488E1
2.477459458E0,4.055961775E0,-3.657930404E0,-9.573930947E0,1.102231530E1
2.487395458E0,2.811514948E0,-4.456605683E0,-8.590732745E0,1.007802757E1
2.497331458E0,1.631472277E0,-4.833840555E0,-7.391988047E0,8.981603620E0
2.507266458E0,8.703937179E-1,-4.767544824E0,-6.130386951E0,7.814647339E0
2.517202458E0,6.708346796E-1,-4.332369892E0,-5.107920603E0,6.731292664E0
2.527137458E0,1.078022498E0,-3.703602421E0,-4.269254462E0,5.753723756E0
2.537073458E0,1.518491792E0,-3.054157441E0,-3.323904701E0,4.762566268E0
2.547008458E0,1.727480927E0,-2.360632641E0,-2.483425924E0,3.837210072E0
2.556944458E0,1.864950429E0,-1.747356783E0,-2.070362822E0,3.289026914E0
2.566879458E0,2.007925961E0,-1.831525113E0,-2.079280411E0,3.421937745E0
2.576815458E0,1.684390164E0,-2.662547774E0,-2.249898802E0,3.871482337E0
2.586751458E0,1.015628030E0,-3.183107842E0,-2.480504070E0,4.161319054E0
2.596686458E0,3.796173200E-1,-3.355117723E0,-2.668974448E0,4.303992200E0
2.606622458E0,1.662948132E-3,-3.353606218E0,-2.675276577E0,4.289962960E0
2.616557458E0,1.144881901E-1,-3.116706276E0,-2.340101312E0,3.899107553E0
2.626493458E0,5.900542259E-1,-2.917930180E0,-1.041838759E0,3.154030520E0
2.636428458E0,1.296622117E0,-2.745099934E0,5.475274265E-1,3.084896894E0
2.646364458E0,2.279678232E0,-2.255240672E0,2.052305451E0,3.807230095E0
2.656300458E0,3.062541763E0,-2.071263294E0,3.315989910E0,4.966395350E0
2.666235458E0,3.128175882E0,-2.157579306E0,3.846992521E0,5.407400879E0
2.676172292E0,2.858485047E0,-1.890788983E0,3.486311116E0,4.888801994E0
2.686107292E0,2.325978532E0,-1.700064502E0,2.302355781E0,3.687985573E0
2.696043292E0,1.665864138E0,-1.719971348E0,9.683772647E-1,2.582858744E0
2.705978292E0,1.097035597E0,-1.740658797E0,1.686980188E-2,2.057587116E0
2.715914292E0,8.932376200E-1,-1.775584801E0,-3.461651069E-1,2.017524501E0
2.725850292E0,1.263044482E0,-1.906283519E0,-1.376902342E-1,2.290885597E0
2.735785292E0,1.791903649E0,-2.119895171E0,4.496795350E-1,2.811954108E0
2.745721292E0,1.849586285E0,-2.354573756E0,1.151110940E0,3.207809750E0
2.755656292E0,1.566886126E0,-2.356199282E0,1.986138359E0,3.457101787E0
2.765592292E0,9.523648109E-1,-2.361919321E0,2.958146744E0,3.903369541E0
2.775527292E0,1.015731525E-1,-2.693127542E0,4.185459183E0,4.978084133E0
2.785463292E0,-6.879169547E-1,-2.747149675E0,5.739292424E0,6.399963953E0
2.795398292E0,-1.367334397E0,-2.522939653E0,7.726777396E0,8.242446043E0
2.805334292E0,-2.038432493E0,-2.313140240E0,9.843523257E0,1.031507513E1
2.815270292E0,-2.427225410E0,-2.120380344E0,1.171709628E1,1.215227474E1
2.825205292E0,-2.929637183E0,-1.583933683E0,1.361316238E1,1.401462842E1
2.835141292E0,-3.570756312E0,-1.170799392E0,1.532689007E1,1.578083113E1
2.845076292E0,-3.812669950E0,-1.125661592E0,1.656903631E1,1.703926437E1
2.855012292E0,-3.584932887E0,-1.678580663E0,1.678318590E1,1.724368597E1
2.864947292E0,-2.925184236E0,-2.591027263E0,1.592123966E1,1.639377923E1
2.874883292E0,-2.241841046E0,-3.399783434E0,1.460241303E1,1.515964528E1
2.884819292E0,-1.446203542E0,-4.042533937E0,1.320246798E1,1.388303807E1
2.894754292E0,-4.548180681E-1,-4.561971340E0,1.227626435E1,1.310439271E1
2.904690292E0,4.620797253E-1,-5.110382280E0,1.198612784E1,1.303828154E1
2.914625292E0,1.214431023E0,-5.713115609E0,1.172952863E1,1.310329633E1
2.924561292E0,2.070094728E0,-6.156719887E0,1.146657233E1,1.317849661E1
2.934496292E0,2.663633017E0,-7.126809801E0,1.141412514E1,1.371745645E1
2.944432292E0,3.078041562E0,-8.526175976E0,1.148675341E1,1.463268671E1
2.954368292E0,3.450310687E0,-9.935245020E0,1.137792737E1,1.549422372E1
2.964303292E0,3.664677214E0,-1.149789937E1,1.098980907E1,1.632199291E1
2.974239292E0,3.491012278E0,-1.313166873E1,1.039727797E1,1.710939156E1
2.984174292E0,2.921043822E0,-1.464616190E1,9.233346423E0,1.755839519E1
2.994110292E0,2.003932459E0,-1.585736935E1,7.154051979E0,1.751149245E1
3.004045292E0,8.461849295E-1,-1.691403957E1,4.948668176E0,1.764341465E1
3.013981292E0,-1.236501558E-1,-1.736040198E1,3.615837760E0,1.773339023E1
3.023917292E0,-5.304657628E-1,-1.794957679E1,2.548577939E0,1.813736338E1
3.033852292E0,-2.338594997E-1,-1.835145475E1,1.479593190E0,1.841248972E1
3.043788292E0,6.247537963E-1,-1.825781276E1,5.095652559E-1,1.827560398E1
3.053723292E0,1.512099031E0,-1.802219687E1,-2.613179147E-1,1.808740751E1
3.063659292E0,2.332332702E0,-1.729626738E1,-9.685298040E-1,1.747966508E1
3.073594292E0,2.984137033E0,-1.608843377E1,-1.639993132E0,1.644482753E1
3.083530292E0,2.816508763E0,-1.500008217E1,-2.206401218E0,1.542087523E1
3.093466292E0,1.904925065E0,-1.422481622E1,-3.048914827E0,1.467208293E1
3.103401292E0,9.788867578E-1,-1.340540847E1,-4.657037711E0,1.422502006E1
3.113337292E0,2.036659033E-1,-1.229198400E1,-6.119912249E0,1.373272283E1
3.123272292E0,1.780156300E-1,-1.169900149E1,-6.648204090E0,1.345722642E1
3.133208292E0,1.143626212E0,-1.137878457E1,-6.810587116E0,1.331047392E1
3.143143292E0,1.057764089E0,-1.008571025E1,-6.541374875E0,1.206772561E1
3.153079292E0,6.720962164E-1,-8.797155830E0,-6.053503082E0,1.069983942E1
3.163014292E0,8.550802986E-1,-7.643577365E0,-5.712716244E0,9.580739227E0
3.172950292E0,1.559408853E0,-6.861507593E0,-6.055516863E0,9.283389839E0
3.182886292E0,2.438437446E0,-6.190226771E0,-6.574336799E0,9.353437283E0
3.192821292E0,2.951790821E0,-5.570411972E0,-7.069233438E0,9.471885767E0
3.202757292E0,3.179321477E0,-5.022499799E0,-7.623730745E0,9.667205375E0
3.212692292E0,3.488229588E0,-4.584209470E0,-8.003443667E0,9.860924534E0
3.222628292E0,3.801868096E0,-4.247223907E0,-8.036972187E0,9.853224541E0
3.232563292E0,4.044587772E0,-3.769062000E0,-8.024718177E0,9.744774005E0
3.242499292E0,4.305932584E0,-3.251979856E0,-8.327893385E0,9.923217050E0
3.252435292E0,4.473772231E0,-2.710629428E0,-8.794746777E0,1.023277679E1
3.262370292E0,4.465084730E0,-2.195924762E0,-9.119432722E0,1.038860531E1
3.272306292E0,4.176658247E0,-2.092541896E0,-9.180539049E0,1.030075254E1
3.282241292E0,3.690174582E0,-2.330802485E0,-8.852462304E0,9.869960360E0
3.292177292E0,3.150670413E0,-2.557613057E0,-8.276901571E0,9.218199836E0
3.302112292E0,2.634185854E0,-2.552441195E0,-7.631397614E0,8.467119978E0
3.312048292E0,2.304072231E0,-2.388962401E0,-7.027108927E0,7.771495999E0
3.321984292E0,2.134988296E0,-2.185846501E0,-6.601178443E0,7.274039922E0
3.331919292E0,2.152579645E0,-2.115056600E0,-6.321294449E0,7.004700355E0
3.341855292E0,2.184030063E0,-2.338513209E0,-5.902995751E0,6.714461273E0
3.351790292E0,1.987501345E0,-2.602700937E0,-5.541067135E0,6.436430592E0
3.361726292E0,1.556564182E0,-2.636283250E0,-5.495243676E0,6.290515439E0
3.371661292E0,1.125175030E0,-2.744201801E0,-5.361088668E0,6.126820879E0
3.381597292E0,8.271006408E-1,-3.101148005E0,-4.882048509E0,5.842568961E0
3.391532292E0,7.384901807E-1,-3.168387476E0,-4.301182013E0,5.392978181E0
3.401468292E0,8.388868734E-1,-3.262831119E0,-3.900830174E0,5.154248165E0
3.411404292E0,1.185558349E0,-3.554912404E0,-3.345037708E0,5.023169126E0
3.421339292E0,1.495053228E0,-3.941009316E0,-2.390871516E0,4.845926660E0
3.431275292E0,1.570023450E0,-4.003475121E0,-1.500918862E0,4.554727666E0
3.441210292E0,1.417785928E0,-3.899156701E0,-6.379318124E-1,4.197677562E0
3.451146292E0,1.132571319E0,-3.639038635E0,-7.795975685E-2,3.812007044E0
3.461081292E0,9.549753003E-1,-3.018695247E0,2.576587272E-1,3.176615627E0
3.471017292E0,8.010961725E-1,-2.264153582E0,1.753730832E0,2.973838993E0
3.480953292E0,1.967927206E0,-2.041465883E0,2.530878417E0,3.800745453E0
3.490888292E0,3.725855754E0,-1.542041160E0,3.502024924E0,5.340793069E0
3.500824292E0,4.670037240E0,-1.456539080E0,4.021765797E0,6.332878811E0
3.510759292E0,4.290005645E0,-1.746149917E0,3.513240468E0,5.813436725E0
3.520695292E0,3.286158001E0,-2.170856871E0,2.316891375E0,4.569402543E0
3.530630292E0,2.024613038E0,-2.724494931E0,1.029466050E0,3.547073572E0
3.540566292E0,1.432517403E0,-2.943986835E0,3.190603387E-1,3.289523384E0
3.550502292E0,1.444905021E0,-3.402108580E0,2.561296803E-1,3.705090515E0
3.560437292E0,1.579984328E0,-4.349391721E0,7.845086449E-1,4.693507498E0
3.570373292E0,1.583327619E0,-5.065569804E0,2.008341991E0,5.674536223E0
3.580308292E0,1.124729180E0,-5.432719983E0,3.712053401E0,6.675238018E0
3.590244292E0,2.510225394E-1,-5.552052884E0,6.156095404E0,8.293721370E0
3.600179292E0,-1.052256012E0,-5.455556869E0,9.281697049E0,1.081758955E1
3.610115292E0,-2.448932906E0,-4.903920312E0,1.272264079E1,1.385320524E1
3.620051292E0,-3.878457850E0,-3.996605228E0,1.648891542E1,1.740401162E1
3.629986292E0,-5.176984406E0,-3.608962312E0,1.987149576E1,2.084951127E1
3.639922292E0,-6.013296458E0,-3.677569155E0,2.183160407E1,2.294129869E1
3.649857292E0,-6.230840362E0,-4.116163246E0,2.209127190E1,2.331931529E1
3.659793292E0,-5.847945385E0,-5.009479219E0,2.056940539E1,2.196346478E1
3.669728292E0,-4.631525432E0,-5.756482068E0,1.759335505E1,1.908177811E1
3.679664167E0,-3.116759193E0,-6.404988570E0,1.405510663E1,1.575703300E1
3.689600167E0,-1.837199543E0,-6.848934910E0,1.102527127E1,1.310876875E1
3.699535167E0,-7.394286588E-1,-6.972833902E0,9.343509135E0,1.168196603E1
3.709471167E0,2.829261540E-1,-7.156071022E0,9.118874313E0,1.159496737E1
3.719406167E0,1.127940105E0,-7.617690572E0,9.594461106E0,1.230264778E1
3.729342167E0,1.852327606E0,-8.472946433E0,9.906366792E0,1.316655011E1
3.739277167E0,2.482190699E0,-9.573202969E0,9.560592279E0,1.375545021E1
3.749213167E0,2.796009886E0,-1.074680113E1,8.511800011E0,1.399150261E1
3.759149167E0,2.828824461E0,-1.188972129E1,7.236664950E0,1.420341648E1
3.769084167E0,2.766196103E0,-1.290408106E1,6.095208347E0,1.453680548E1
3.779020167E0,2.725709397E0,-1.381383297E1,4.863423958E0,1.489645480E1
3.788955167E0,2.490105783E0,-1.450290745E1,3.371738434E0,1.509647547E1
3.798891167E0,2.188309933E0,-1.486916769E1,2.014748785E0,1.516377462E1
3.808826167E0,1.882718655E0,-1.490448370E1,1.355721973E0,1.508397315E1
3.818762167E0,1.706820960E0,-1.530383333E1,1.068793253E0,1.543576598E1
3.828697167E0,1.764765698E0,-1.580401117E1,5.859617597E-1,1.591302983E1
3.838633167E0,2.197325462E0,-1.577255315E1,-1.999087018E-1,1.592613059E1
3.848569167E0,2.663730665E0,-1.547484217E1,-1.142972785E0,1.574396989E1
3.858504167E0,2.747091495E0,-1.500167495E1,-1.936375776E0,1.537355893E1
3.868440167E0,2.662799496E0,-1.451434929E1,-2.349614148E0,1.494247379E1
3.878375167E0,2.438152395E0,-1.423726728E1,-2.260144147E0,1.462028106E1
3.888311167E0,2.408289202E0,-1.368353713E1,-2.315740496E0,1.408551381E1
3.898246167E0,2.714675409E0,-1.284993701E1,-2.440704997E0,1.335841999E1
3.908182167E0,2.691698775E0,-1.184586016E1,-2.761928805E0,1.245784475E1
3.918118167E0,2.164962293E0,-1.056499833E1,-3.762678302E0,1.142208385E1
3.928053167E0,1.643481581E0,-9.800115867E0,-5.021064892E0,1.113348083E1
3.937989167E0,1.387039513E0,-9.663029650E0,-6.248366221E0,1.159051772E1
3.947924167E0,1.544599902E0,-8.992704263E0,-7.140795171E0,1.158643493E1
3.957860167E0,1.620309212E0,-7.828592039E0,-7.652150552E0,1.106651089E1
3.967795167E0,1.420707343E0,-7.319714708E0,-7.728106468E0,1.073872722E1
3.977731167E0,1.344292128E0,-6.936685830E0,-7.042778880E0,9.976245084E0
3.987667167E0,1.527350031E0,-6.155400170E0,-6.238944603E0,8.896413835E0
3.997602167E0,1.866692022E0,-5.472719032E0,-6.172597416E0,8.457904679E0
4.007538167E0,2.389381061E0,-4.843930510E0,-6.573949714E0,8.508208947E0
4.017473167E0,2.944516008E0,-4.139196013E0,-7.092035825E0,8.723536570E0
4.027409167E0,3.578752964E0,-3.311874055E0,-7.740852814E0,9.148594691E0
4.037344167E0,4.258749354E0,-2.638546123E0,-8.511791825E0,9.876713612E0
4.047280167E0,4.713150516E0,-2.063513394E0,-9.115979941E0,1.046771062E1
4.057216167E0,4.780208139E0,-1.417216555E0,-9.577225853E0,1.079732132E1
4.067151167E0,4.691531605E0,-9.645344746E-1,-9.981435685E0,1.107112704E1
4.077087167E0,4.555789078E0,-1.208439966E0,-1.041419162E1,1.143113855E1
4.087022167E0,4.105033656E0,-1.895380801E0,-1.035777652E1,1.130165050E1
4.096958167E0,3.447213124E0,-2.615549024E0,-9.505549514E0,1.044412977E1
4.106893167E0,2.709399174E0,-3.305371367E0,-8.237134073E0,9.279908485E0
4.116829167E0,2.053443319E0,-3.676167870E0,-6.948571465E0,8.124868311E0
4.126765167E0,1.650299435E0,-3.578013584E0,-5.768001083E0,6.985378009E0
4.136700167E0,1.534611104E0,-3.248066314E0,-4.821349733E0,6.012518546E0
4.146636167E0,1.530083604E0,-2.701769727E0,-4.262551214E0,5.273524281E0
4.156571167E0,1.446697339E0,-2.125320802E0,-4.055534052E0,4.801799470E0
4.166507167E0,1.291865992E0,-1.881125289E0,-4.173474730E0,4.756620798E0
4.176442167E0,1.010542999E0,-2.257175515E0,-4.420984445E0,5.065682770E0
4.186378167E0,7.606748092E-1,-2.879065492E0,-4.711061013E0,5.573306033E0
4.196313167E0,6.396701896E-1,-3.649730269E0,-4.981626007E0,6.208567199E0
4.206249167E0,5.420769444E-1,-4.614099852E0,-5.000939945E0,6.825918633E0
4.216185167E0,5.643900655E-1,-5.537115587E0,-4.562220723E0,7.196668889E0
4.226120167E0,5.436767426E-1,-5.806582766E0,-3.690332165E0,6.901488195E0
4.236056167E0,8.179580806E-1,-5.343536496E0,-2.072697031E0,5.789517311E0
4.245991167E0,1.036006746E0,-4.280763536E0,2.394715476E-1,4.410849470E0
4.255927167E0,1.168222817E0,-3.302922553E0,2.096482919E0,4.082803274E0
4.265862167E0,1.616593745E0,-2.610704606E0,3.359423613E0,4.551360333E0
4.275798167E0,2.128040342E0,-2.529448773E0,4.404021088E0,5.506547788E0
4.285734167E0,1.874095182E0,-2.600739196E0,5.797292710E0,6.624551297E0
4.295669167E0,1.768949965E0,-1.772058930E0,7.244467474E0,7.664964828E0
4.305605167E0,1.424930786E0,-1.752170503E0,6.000898606E0,6.411810454E0
4.315540167E0,1.236331769E0,-1.677302754E0,3.598418028E0,4.158181462E0
4.325476167E0,1.291359331E0,-1.055311036E0,2.466127521E0,2.977091744E0
4.335411167E0,1.392437955E0,-1.223361183E0,3.444167309E0,3.911238231E0
4.345347167E0,1.266233845E0,-2.202221628E0,4.985492771E0,5.595379024E0
4.355283167E0,6.523532389E-1,-2.452970993E0,5.709804915E0,6.248560123E0
4.365218167E0,-3.680530623E-1,-2.043838683E0,5.524193240E0,5.901648124E0
4.375154167E0,-1.147622783E0,-1.764701671E0,4.901394607E0,5.334311496E0
4.385089167E0,-1.555524109E0,-1.653638049E0,4.477010127E0,5.019740404E0
4.395025167E0,-1.957917357E0,-1.839896133E0,4.442431448E0,5.191710250E0
4.404960167E0,-2.088489776E0,-1.848213944E0,4.964777840E0,5.694444953E0
4.414896167E0,-2.098800756E0,-1.500561890E0,6.261254654E0,6.771998260E0
4.424832167E0,-2.128762473E0,-1.113272730E0,7.874821295E0,8.233092752E0
4.434767167E0,-1.909328749E0,-8.273650812E-1,9.487486880E0,9.713005537E0
4.444703167E0,-1.970258198E0,-6.227133373E-1,1.107574443E1,1.126684534E1
4.454638167E0,-2.075959193E0,-6.128871280E-1,1.243804745E1,1.262498560E1
4.464574167E0,-2.304931626E0,-1.275687039E0,1.351616292E1,1.377050279E1
4.474509167E0,-2.516771425E0,-2.110472821E0,1.430318294E1,1.467546511E1
4.484445167E0,-2.441859968E0,-3.017788636E0,1.479829593E1,1.529899639E1
4.494381167E0,-2.033268232E0,-4.199347490E0,1.487569318E1,1.559021958E1
4.504316167E0,-1.406025861E0,-5.514623687E0,1.460952792E1,1.567884847E1
4.514252167E0,-8.243399511E-1,-6.773007061E0,1.447391696E1,1.600148222E1
4.524187167E0,-1.181408726E-1,-7.762436641E0,1.412643798E1,1.611910760E1
4.534123167E0,7.409333666E-1,-8.768603876E0,1.366390218E1,1.625237271E1
4.544058167E0,1.726008306E0,-9.979414887E0,1.325838491E1,1.668390232E1
4.553994167E0,2.807502589E0,-1.119768695E1,1.277812619E1,1.722064960E1
4.563930167E0,3.591933173E0,-1.271369221E1,1.206605227E1,1.789216507E1
4.573865167E0,3.742391388E0,-1.459456139E1,1.096122788E1,1.863210220E1
4.583801167E0,3.732174548E0,-1.627607911E1,9.399435999E0,1.916218346E1
4.593736167E0,3.779353392E0,-1.741768365E1,7.453468596E0,1.931873210E1
4.603672167E0,3.637773005E0,-1.799579786E1,5.447708736E0,1.915097030E1
4.613607167E0,3.069256706E0,-1.862861043E1,3.671849116E0,1.923351084E1
4.623543167E0,2.281382403E0,-1.924593958E1,2.414122385E0,1.953046039E1
4.633479167E0,1.676229643E0,-1.953484817E1,1.307582138E0,1.965018600E1
4.643414167E0,1.696483814E0,-1.939899864E1,3.213483542E-2,1.947306443E1
4.653350167E0,2.433236202E0,-1.914434772E1,-1.241819966E0,1.933827306E1
4.663285167E0,3.328015294E0,-1.844713976E1,-1.990885713E0,1.885036543E1
4.673220917E0,3.546941772E0,-1.696905369E1,-2.559865989E0,1.752376937E1
4.683155917E0,3.119818749E0,-1.569019278E1,-3.404481672E0,1.635560803E1
4.693091917E0,2.302478427E0,-1.469197600E1,-4.241758515E0,1.546441338E1
4.703026917E0,1.206842360E0,-1.367490897E1,-5.455721176E0,1.477242355E1
4.712962917E0,1.616985362E-1,-1.262217159E1,-7.038570639E0,1.445291800E1
4.722898917E0,-2.276329093E-1,-1.162643988E1,-8.234602228E0,1.424902084E1
4.732833917E0,6.226874634E-1,-1.111407410E1,-8.954665786E0,1.428623191E1
4.742769917E0,1.286079003E0,-1.040700540E1,-8.810143665E0,1.369592611E1
4.752704917E0,7.341633873E-1,-9.328373618E0,-7.515944926E0,1.200195727E1
4.762640917E0,3.328201528E-1,-8.187200021E0,-6.180940808E0,1.026377332E1
4.772575917E0,6.953242806E-1,-6.846587253E0,-6.117611954E0,9.207844965E0
4.782511917E0,1.221294777E0,-6.119324019E0,-6.738031356E0,9.183613337E0
4.792447917E0,1.785869761E0,-5.721902804E0,-7.131942487E0,9.316335446E0
4.802382917E0,2.068415115E0,-5.459675648E0,-7.181874200E0,9.255577577E0
4.812318917E0,2.219961496E0,-5.239641414E0,-6.815807510E0,8.879037291E0
4.822253917E0,2.464865107E0,-4.661787989E0,-6.582828711E0,8.434539767E0
4.832189917E0,2.943149513E0,-3.846634086E0,-6.912025782E0,8.440072468E0
4.842124917E0,3.460485719E0,-3.104004954E0,-7.612378961E0,8.919535953E0
4.852060917E0,3.801588306E0,-2.542558815E0,-8.393512008E0,9.558646495E0
4.861996917E0,3.959861324E0,-1.875722462E0,-9.308003088E0,1.028774795E1
4.871931917E0,4.175419514E0,-1.491018357E0,-1.007537004E1,1.100774024E1
4.881867917E0,4.367842903E0,-1.706568360E0,-1.041830456E1,1.142503816E1
4.891802917E0,4.319238800E0,-2.331339260E0,-1.037839380E1,1.148050628E1
4.901738917E0,3.673859681E0,-3.073413491E0,-9.755657147E0,1.086811676E1
4.911673917E0,2.487789701E0,-3.997241989E0,-8.626228852E0,9.827454672E0
4.921609917E0,1.493346718E0,-4.451643151E0,-7.101635199E0,8.513544130E0
4.931545917E0,1.037109531E0,-4.294776388E0,-6.035071489E0,7.479491178E0
4.941480917E0,1.023855939E0,-3.899460171E0,-5.520610067E0,6.836022683E0
4.951416917E0,1.427997651E0,-3.431626786E0,-4.930655243E0,6.174674147E0
4.961351917E0,1.830896830E0,-3.027394735E0,-4.286697875E0,5.558154438E0
4.971287917E0,2.136413263E0,-2.704771687E0,-4.253519604E0,5.474712827E0
4.981222917E0,2.415052677E0,-2.736013361E0,-4.691533944E0,5.943798389E0
4.991158917E0,2.425258407E0,-2.980716997E0,-5.196775476E0,6.463205668E0
5.001094917E0,1.505922471E0,-3.637989060E0,-5.619208156E0,6.861360447E0
5.011029917E0,5.351494557E-1,-4.544337891E0,-5.994066135E0,7.540969476E0
5.020965917E0,6.760258377E-2,-5.162782103E0,-6.280593735E0,8.130482570E0
5.030900917E0,1.645868415E-1,-5.535717518E0,-6.147977715E0,8.274592875E0
5.040836917E0,4.393473588E-1,-5.750067088E0,-5.174491153E0,7.748009829E0
5.050771917E0,-1.307162601E-1,-5.031596897E0,-1.486935246E0,5.248335974E0
5.060707917E0,1.918016835E-1,-4.478618111E0,6.597787642E-1,4.531017114E0
5.070642917E0,9.674784015E-1,-4.887099919E0,2.063001763E0,5.392192165E0
5.080578917E0,1.679059550E0,-4.989849531E0,2.735154405E0,5.932866839E0
5.090514917E0,2.181056170E0,-4.361536973E0,3.911783763E0,6.251564844E0
5.100449917E0,2.253737937E0,-4.016577562E0,5.647610421E0,7.287505298E0
5.110385917E0,2.504396085E0,-3.785083371E0,7.303259473E0,8.598630985E0
5.120320917E0,2.830497641E0,-3.360287247E0,8.262226229E0,9.357757720E0
5.130256917E0,2.602022367E0,-3.383407137E0,7.951626812E0,9.024762225E0
5.140191917E0,2.158532403E0,-3.254268456E0,6.725349914E0,7.776879631E0
5.150127917E0,1.836984220E0,-2.524294453E0,5.203389847E0,6.068100148E0
5.160063917E0,1.483841484E0,-2.186206105E0,4.580016432E0,5.287516733E0
5.169998917E0,1.681092042E0,-2.059176953E0,5.249698040E0,5.884352954E0
5.179934917E0,1.945506057E0,-1.865748866E0,6.134557185E0,6.700657021E0
5.189869917E0,1.555061594E0,-2.311032318E0,6.997847705E0,7.531862947E0
5.199805917E0,5.766304806E-1,-2.814743196E0,7.972299643E0,8.474245899E0
5.209740917E0,-3.765636116E-1,-3.066843267E0,9.296638439E0,9.796673622E0
5.219676917E0,-1.385348499E0,-2.914996632E0,1.078207154E1,1.125475288E1
5.229612917E0,-2.481101655E0,-2.553920833E0,1.253828042E1,1.303406509E1
5.239547917E0,-3.389301715E0,-2.196333482E0,1.477558768E1,1.531761202E1
5.249483917E0,-3.739891703E0,-1.909349945E0,1.652828355E1,1.705334467E1
5.259418917E0,-3.769937328E0,-2.250435284E0,1.699250453E1,1.755055830E1
5.269354917E0,-3.851943358E0,-2.938488113E0,1.676678096E1,1.745271107E1
5.279289917E0,-3.679001430E0,-4.094112519E0,1.608714388E1,1.700273528E1
5.289225917E0,-3.036373719E0,-5.684772985E0,1.507091768E1,1.639111860E1
5.299161917E0,-2.358909466E0,-6.934270345E0,1.415176578E1,1.593489987E1
5.309096917E0,-1.698600360E0,-7.793261408E0,1.329423652E1,1.550344772E1
5.319032917E0,-7.298287732E-1,-8.652881631E0,1.276992605E1,1.544266887E1
5.328967917E0,2.346592891E-1,-9.757273318E0,1.228912354E1,1.569337456E1
5.338903917E0,9.770462736E-1,-1.097526822E1,1.134940933E1,1.581835086E1
5.348838917E0,1.479834387E0,-1.208606962E1,1.008475599E1,1.581029070E1
5.358774917E0,2.060829668E0,-1.326489753E1,8.954116148E0,1.613631685E1
5.368710917E0,2.726882349E0,-1.424977447E1,8.173519290E0,1.665227845E1
5.378645917E0,3.192137404E0,-1.524351579E1,7.321122717E0,1.720910668E1
5.388581917E0,3.185751953E0,-1.622500368E1,5.853801956E0,1.754043207E1
5.398516917E0,2.837644108E0,-1.666878279E1,4.145151402E0,1.740927408E1
5.408452917E0,2.390261360E0,-1.699858330E1,2.749200001E0,1.738457029E1
5.418387917E0,1.852007909E0,-1.744954863E1,1.691389573E0,1.762888197E1
5.428323917E0,1.908634246E0,-1.738943692E1,6.353350639E-1,1.750540064E1
5.438259917E0,2.597998314E0,-1.689156755E1,-5.095529768E-1,1.709778623E1
5.448194917E0,3.065383218E0,-1.647368342E1,-1.112432193E0,1.679334169E1
5.458130917E0,3.279876337E0,-1.592791367E1,-1.406415578E0,1.632280697E1
5.468065917E0,3.441025600E0,-1.525796075E1,-2.122136993E0,1.578446986E1
5.478001917E0,3.462071484E0,-1.445147067E1,-2.900604880E0,1.514082072E1
5.487936917E0,2.695136938E0,-1.369097245E1,-3.920351104E0,1.449398642E1
5.497872917E0,1.238078040E0,-1.280126713E1,-5.479293641E0,1.397955422E1
5.507808917E0,-5.332725725E-1,-1.176417689E1,-6.755342038E0,1.357626177E1
5.517743917E0,2.600528696E-1,-1.248460999E1,-7.543264872E0,1.458882994E1
5.527679917E0,1.712316612E0,-1.215970595E1,-8.307149802E0,1.482562696E1
5.537614917E0,1.335630940E0,-1.032369193E1,-8.694083451E0,1.356280252E1
5.547550917E0,5.214948915E-1,-9.065065311E0,-8.605918549E0,1.251036371E1
5.557485917E0,3.584914760E-1,-8.340679491E0,-8.030119250E0,1.158353425E1
5.567421917E0,7.810315982E-1,-7.232301173E0,-7.788347408E0,1.065713592E1
5.577357917E0,1.444983813E0,-6.129762468E0,-8.181881978E0,1.032497743E1
5.587292917E0,2.001369186E0,-5.550701008E0,-8.561769147E0,1.039805997E1
5.597228917E0,2.444534338E0,-5.123761879E0,-8.640164521E0,1.033833289E1
5.607163917E0,2.929872825E0,-4.704625860E0,-8.489627370E0,1.013861096E1
5.617099917E0,3.517463035E0,-4.182454299E0,-8.531713874E0,1.013191057E1
5.627034917E0,4.017313434E0,-3.530624240E0,-8.898166480E0,1.038178604E1
5.636970917E0,4.445123798E0,-3.122846437E0,-9.396645707E0,1.085395071E1
5.646905917E0,4.632038525E0,-3.132794305E0,-9.593950059E0,1.110468634E1
5.656841917E0,4.398092011E0,-3.415739316E0,-9.442778485E0,1.096250674E1
5.666777917E0,3.883416874E0,-3.787097152E0,-8.813026342E0,1.034854892E1
5.676712417E0,3.305721323E0,-3.860544028E0,-7.800487397E0,9.310166340E0
5.686648417E0,2.732719039E0,-3.667459611E0,-6.733365862E0,8.139792945E0
5.696583417E0,2.411111653E0,-3.288590443E0,-5.991654743E0,7.247634998E0
5.706519417E0,2.046055655E0,-2.851445584E0,-5.349503580E0,6.397989857E0
5.716454417E0,1.628765016E0,-2.488772618E0,-4.781256545E0,5.630921662E0
5.726390417E0,1.230180498E0,-2.219318302E0,-4.504431814E0,5.169973283E0
5.736326417E0,9.404152948E-1,-1.949030174E0,-4.538949097E0,5.028434991E0
5.746261417E0,9.791668394E-1,-1.927524115E0,-4.706655428E0,5.179451924E0
5.756197417E0,1.001742354E0,-2.397656041E0,-4.941387808E0,5.582970150E0
5.766132417E0,9.357191035E-1,-3.283330872E0,-4.998371263E0,6.053060973E0
5.776068417E0,7.678774095E-1,-4.154927362E0,-4.896953647E0,6.467859933E0
5.786003417E0,8.508464760E-1,-4.942422765E0,-5.059531385E0,7.123927312E0
5.795939417E0,7.051823938E-1,-5.416691011E0,-4.909283670E0,7.344310034E0
5.805875417E0,-1.436924011E-2,-5.208075221E0,-4.251981202E0,6.723362114E0
5.815810417E0,-6.585134268E-1,-4.541535906E0,-2.070067538E0,5.034319013E0
5.825746417E0,-8.823134132E-1,-2.960999601E0,1.530516298E0,3.447966899E0
5.835681417E0,3.090262243E-1,-2.874840294E0,2.612069346E0,3.896551063E0
5.845617417E0,2.058514463E0,-2.810437306E0,3.585752374E0,4.999365933E0
5.855552417E0,3.184395398E0,-2.732122039E0,3.728764159E0,5.613247460E0
5.865488417E0,2.773620898E0,-2.728857538E0,3.242288681E0,5.064787482E0
5.875424417E0,1.624241318E0,-2.417574581E0,1.775688881E0,3.411143169E0
5.885359417E0,5.515634671E-1,-2.222655601E0,1.624742424E-1,2.295826225E0
5.895295417E0,1.709104590E-1,-2.415539457E0,-6.635163045E-1,2.510835547E0
5.905230417E0,7.584692395E-1,-2.650351651E0,1.029080719E-1,2.758664448E0
5.915166417E0,1.791087816E0,-3.080356475E0,2.048117675E0,4.109912115E0
5.925101417E0,2.244651072E0,-3.642183852E0,3.885653726E0,5.779469398E0
5.935037417E0,1.900433088E0,-3.671889462E0,5.044604613E0,6.522457653E0
5.944973417E0,1.072227981E0,-3.105882203E0,5.704195096E0,6.582857951E0
5.954908417E0,2.290667197E-1,-2.631939354E0,6.265814313E0,6.800000392E0
5.964844417E0,-5.128748531E-1,-2.417556747E0,6.855244056E0,7.287111383E0
5.974779417E0,-9.203024809E-1,-2.476309862E0,7.945250423E0,8.372936849E0
5.984715417E0,-1.121364838E0,-3.042914999E0,9.349624153E0,9.896073090E0
5.994650417E0,-1.106792407E0,-3.567590630E0,1.098477111E1,1.160249494E1
6.004586417E0,-1.321702433E0,-3.510418017E0,1.268492391E1,1.322789577E1
6.014522417E0,-1.949374136E0,-3.347033363E0,1.410737372E1,1.462944583E1
6.024457417E0,-2.733969174E0,-3.286778098E0,1.508642215E1,1.568048568E1
6.034393417E0,-3.185946080E0,-3.097777377E0,1.588446301E1,1.649432152E1
6.044328417E0,-3.565905755E0,-3.720438309E0,1.637345279E1,1.716529351E1
6.054264417E0,-3.823665054E0,-4.568995307E0,1.634669359E1,1.739857822E1
6.064199417E0,-3.782190168E0,-5.234501712E0,1.536999808E1,1.667158696E1
6.074135417E0,-3.220664508E0,-5.822100107E0,1.349229575E1,1.504365561E1
6.084071417E0,-2.185016927E0,-6.275007305E0,1.178345282E1,1.352774098E1
6.094006417E0,-9.544623533E-1,-6.627390341E0,1.117852562E1,1.303045418E1
6.103942417E0,2.544458283E-1,-7.498140154E0,1.178215123E1,1.396803265E1
6.113877417E0,1.252116913E0,-8.693880553E0,1.205815151E1,1.491812232E1
6.123813417E0,2.092587797E0,-9.738831199E0,1.130022840E1,1.506382815E1
6.133748417E0,2.600513786E0,-1.090662775E1,9.665738080E0,1.480350275E1
6.143684417E0,2.676245461E0,-1.226884189E1,7.842210789E0,1.480496677E1
6.153620417E0,2.716980674E0,-1.319648043E1,6.282418651E0,1.486599690E1
6.163555417E0,2.724791677E0,-1.405775893E1,5.157269349E0,1.521980627E1
6.173491417E0,2.510410824E0,-1.487419512E1,4.058880998E0,1.562108697E1
6.183426417E0,2.257361895E0,-1.545761042E1,2.825331919E0,1.587500876E1
6.193362417E0,1.802582126E0,-1.603398684E1,1.922894874E0,1.624917109E1
6.203297417E0,1.256918938E0,-1.650349253E1,1.263307314E0,1.659942940E1
6.213233417E0,1.524747728E0,-1.651531560E1,4.695360947E-1,1.659219603E1
6.223169417E0,2.111609959E0,-1.654648360E1,-4.071138516E-1,1.668564526E1
6.233104417E0,2.588588682E0,-1.633137155E1,-1.426629110E0,1.659667915E1
6.243040417E0,3.398530961E0,-1.523202601E1,-2.494118727E0,1.580459608E1
6.252975417E0,3.657182545E0,-1.430346595E1,-3.378410107E0,1.514522291E1
6.262911417E0,3.307646518E0,-1.368790149E1,-3.915119015E0,1.461599567E1
6.272846417E0,2.968163025E0,-1.310488731E1,-3.690977697E0,1.393453908E1
6.282782417E0,2.139374000E0,-1.271602759E1,-2.999687119E0,1.323904836E1
6.292718417E0,1.411669301E0,-1.237406955E1,-3.125836118E0,1.284060976E1
6.302653417E0,1.348267357E0,-1.159900942E1,-4.180588453E0,1.240290951E1
6.312589417E0,1.381630547E0,-1.043968899E1,-4.807413187E0,1.157614922E1
6.322524417E0,1.321437262E0,-9.634766548E0,-5.071450349E0,1.096788637E1
6.332460417E0,1.454155609E0,-9.069299864E0,-5.495001601E0,1.070335514E1
6.342395417E0,1.142441273E0,-7.947074170E0,-6.036950784E0,1.004519461E1
6.352331417E0,6.448799126E-1,-6.985273268E0,-6.655755769E0,9.670005046E0
6.362266417E0,4.919005251E-1,-6.357972279E0,-7.372699252E0,9.747947060E0
6.372202417E0,8.101209113E-1,-5.914262751E0,-7.488409218E0,9.576589810E0
6.382138417E0,1.586863577E0,-4.912154653E0,-7.134598877E0,8.806242132E0
6.392073417E0,2.585455451E0,-3.998210288E0,-7.263902450E0,8.685306224E0
6.402009417E0,3.358310595E0,-3.565043290E0,-7.549596237E0,8.999121460E0
6.411944417E0,3.996856073E0,-3.155372744E0,-7.889047571E0,9.389798038E0
6.421880417E0,4.417391331E0,-2.829351295E0,-8.276118629E0,9.798607783E0
6.431815417E0,4.647808173E0,-2.635020252E0,-8.573114499E0,1.010167039E1
6.441751417E0,4.785940457E0,-2.436169311E0,-8.762665443E0,1.027737577E1
6.451687417E0,4.842460228E0,-2.114312249E0,-8.788252859E0,1.025441981E1
6.461622417E0,4.865305884E0,-1.849382510E0,-8.842831355E0,1.026094944E1
6.471558417E0,4.678901912E0,-1.821309443E0,-9.050633798E0,1.035003688E1
6.481493417E0,4.282359534E0,-2.090727505E0,-8.975291255E0,1.016196820E1
6.491429417E0,3.612645473E0,-2.468883314E0,-8.344286638E0,9.421980240E0
6.501364417E0,2.861611553E0,-2.822811769E0,-7.572051884E0,8.572809148E0
6.511300417E0,2.283216383E0,-2.922309160E0,-6.778943739E0,7.727033460E0
6.521236417E0,1.902505341E0,-2.782404585E0,-6.067917638E0,6.941248181E0
6.531171417E0,1.665777892E0,-2.419817573E0,-5.527367109E0,6.259562303E0
6.541107417E0,1.521314535E0,-2.020797145E0,-5.250412570E0,5.827937128E0
6.551042417E0,1.647144277E0,-1.727659852E0,-4.852120121E0,5.407491331E0
6.560978417E0,1.523610444E0,-1.480211533E0,-4.675923048E0,5.135822360E0
6.570913417E0,1.308494889E0,-1.336096378E0,-4.867999989E0,5.214857265E0
6.580849417E0,1.279125786E0,-1.345955953E0,-5.197959538E0,5.519650674E0
6.590785417E0,1.267711144E0,-1.733837435E0,-5.583757657E0,5.982610916E0
6.600720417E0,1.105000674E0,-2.704401559E0,-5.697671943E0,6.402989915E0
6.610656417E0,8.616594395E-1,-3.594251887E0,-5.313053207E0,6.472220484E0
6.620591417E0,8.419671866E-1,-3.632052382E0,-4.146136658E0,5.575944981E0
6.630527417E0,1.291240633E0,-3.031429898E0,-2.225628617E0,3.976215832E0
6.640462417E0,1.454793686E0,-1.965636851E0,5.058133900E-1,2.497198447E0
6.650398417E0,1.554338294E0,-1.211776387E0,3.130518569E0,3.699258852E0
6.660334417E0,2.677507875E0,-1.641470139E0,4.076061872E0,5.145653799E0
6.670269417E0,3.491746103E0,-2.132288929E0,3.389115189E0,5.312725166E0
6.680205667E0,3.042912660E0,-2.422894962E0,1.417254562E0,4.139848783E0
6.690140667E0,1.565679407E0,-2.810165411E0,-4.830735683E-1,3.252958917E0
6.700076667E0,8.209077086E-1,-2.865638530E0,-1.139836923E0,3.191394972E0
6.710011667E0,1.015030298E0,-2.893230371E0,-1.220705670E-1,3.068545211E0
6.719947667E0,1.632757203E0,-3.202655084E0,2.229201851E0,4.229921578E0
6.729882667E0,2.278483792E0,-3.413159232E0,4.938801584E0,6.421285341E0
6.739818667E0,2.282121491E0,-3.503278567E0,7.316218657E0,8.426630089E0
6.749754667E0,1.456566708E0,-3.256242184E0,9.097105713E0,9.771490782E0
6.759689667E0,2.390911862E-1,-2.972898392E0,9.703039808E0,1.015107240E1
6.769625667E0,-7.818852916E-1,-2.955125780E0,9.445882772E0,9.928182831E0
6.779560667E0,-1.826087349E0,-2.935330617E0,9.928852844E0,1.051346183E1
6.789496667E0,-2.950026131E0,-3.152497668E0,1.133199281E1,1.212662182E1
6.799431667E0,-3.451351783E0,-3.280834696E0,1.270919453E1,1.357200542E1
6.809367667E0,-3.733158926E0,-3.059307083E0,1.370194182E1,1.452718297E1
6.819303667E0,-3.933136041E0,-2.666411614E0,1.412205023E1,1.490005412E1
6.829238667E0,-3.962568001E0,-2.966430202E0,1.415149681E1,1.499221516E1
6.839174667E0,-3.743957857E0,-3.592353588E0,1.410524066E1,1.502930600E1
6.849109667E0,-3.127295583E0,-4.311684490E0,1.376483447E1,1.475944677E1
6.859045667E0,-2.360129488E0,-4.990961087E0,1.314266149E1,1.425515538E1
6.868980667E0,-1.480624346E0,-5.608285557E0,1.257002846E1,1.384379756E1
6.878916667E0,-3.686301825E-1,-6.374035165E0,1.203197001E1,1.362103208E1
6.888852667E0,9.215536389E-1,-6.859141810E0,1.140078647E1,1.333697941E1
6.898787667E0,2.105653108E0,-7.327816025E0,1.056945274E1,1.303242088E1
6.908723667E0,2.827003930E0,-7.733700500E0,9.899911466E0,1.287673568E1
6.918658667E0,3.002080384E0,-8.248773540E0,9.587207635E0,1.299881925E1
6.928594667E0,2.779712819E0,-9.009585174E0,9.404391514E0,1.331698194E1
6.938529667E0,2.346823125E0,-1.004629885E1,8.982627171E0,1.367930153E1
6.948465667E0,1.617859521E0,-1.134910060E1,7.747927945E0,1.383654369E1
6.958401667E0,6.390968701E-1,-1.246743789E1,5.657174712E0,1.370580454E1
6.968336667E0,-9.618128881E-2,-1.303341094E1,3.487555404E0,1.349229760E1
6.978272667E0,-2.626115381E-1,-1.341528675E1,2.155422269E0,1.358987596E1
6.988207667E0,-8.113274843E-2,-1.386019204E1,1.594075533E0,1.395179496E1
6.998143667E0,1.194538649E-1,-1.421834452E1,1.259520657E0,1.427452214E1
7.008078667E0,6.972159279E-1,-1.438760738E1,1.001913385E0,1.443929315E1
7.018014667E0,1.575849469E0,-1.431836933E1,1.168232464E0,1.445211987E1
7.027950667E0,2.165715561E0,-1.432870019E1,1.548309083E0,1.457392308E1
7.037885667E0,2.173495720E0,-1.416138328E1,1.376040462E0,1.439313543E1
7.047821667E0,2.042069315E0,-1.400898379E1,5.462767071E-1,1.416757185E1
7.057756667E0,1.723774231E0,-1.404419806E1,-1.768279874E-1,1.415069486E1
7.067692667E0,1.228367277E0,-1.364957299E1,-9.854523039E-1,1.374011809E1
7.077627667E0,8.479233067E-1,-1.310765772E1,-2.211939555E0,1.331999780E1
7.087563667E0,6.462814171E-1,-1.244644405E1,-3.637808673E0,1.298327005E1
7.097499667E0,7.048874018E-1,-1.139256763E1,-4.321278309E0,1.220495431E1
7.107434667E0,1.102970375E0,-1.037604556E1,-4.043809800E0,1.119067749E1
7.117370667E0,1.865403880E0,-9.610802904E0,-3.626280303E0,1.044017112E1
7.127305667E0,2.272691979E0,-8.125685558E0,-3.719803009E0,9.221107799E0
7.137241667E0,1.842818133E0,-7.203717644E0,-4.741470335E0,8.818790592E0
7.147176667E0,1.607434374E0,-6.988062390E0,-5.947976627E0,9.316398831E0
7.157112667E0,1.897751555E0,-6.580724882E0,-6.721338724E0,9.596030179E0
7.167048667E0,2.310789513E0,-5.929913408E0,-7.347942726E0,9.720899316E0
7.176983667E0,2.730224617E0,-5.310420206E0,-7.935248176E0,9.930903928E0
7.186919667E0,3.271218657E0,-4.782537670E0,-8.239930211E0,1.007323126E1
7.196854667E0,3.782376695E0,-4.368868797E0,-8.110723118E0,9.958775904E0
7.206790667E0,4.134419423E0,-3.818528860E0,-7.954514167E0,9.744171706E0
7.216725667E0,4.367794663E0,-3.338625067E0,-8.243096479E0,9.908213114E0
7.226661667E0,4.566548540E0,-3.086602471E0,-8.571308879E0,1.019057488E1
7.236597667E0,4.626931567E0,-2.896731099E0,-8.508091707E0,1.010876705E1
7.246532667E0,4.652592072E0,-2.440133139E0,-8.546295075E0,1.003195007E1
7.256468667E0,4.714645649E0,-1.941265072E0,-8.802437620E0,1.017247766E1
7.266403667E0,4.592020766E0,-1.704580307E0,-9.059823866E0,1.029915808E1
7.276339667E0,4.141406261E0,-1.910967139E0,-9.099755087E0,1.017883018E1
7.286274667E0,3.482798109E0,-2.230939643E0,-8.858004295E0,9.776053112E0
7.296210667E0,2.790316452E0,-2.440561740E0,-8.452435570E0,9.229619416E0
7.306146667E0,2.148379882E0,-2.644067649E0,-7.815092572E0,8.525391590E0
7.316081667E0,1.763155959E0,-2.870629714E0,-6.944992969E0,7.718948194E0
7.326017667E0,1.496997135E0,-2.941852893E0,-6.107041358E0,6.942006411E0
7.335952667E0,1.323673091E0,-2.707222840E0,-5.430634282E0,6.210712895E0
7.345888667E0,1.310417161E0,-2.094976092E0,-5.077827322E0,5.647162852E0
7.355823667E0,1.207478391E0,-1.633357127E0,-5.239919157E0,5.619840954E0
7.365759667E0,1.120073042E0,-1.478720493E0,-5.299684718E0,5.614965362E0
7.375694667E0,1.071784689E0,-1.457282261E0,-5.131189597E0,5.440726118E0
7.385630667E0,1.103122841E0,-1.532949910E0,-5.070297863E0,5.410613260E0
7.395566667E0,1.271409801E0,-1.867691311E0,-4.880691955E0,5.378281108E0
7.405501667E0,1.533190230E0,-2.324927203E0,-4.434371353E0,5.236373562E0
7.415437667E0,1.607566813E0,-2.672903193E0,-3.812498041E0,4.925832300E0
7.425372667E0,1.466994486E0,-2.949247282E0,-2.891056377E0,4.382731948E0
7.435308667E0,1.202958786E0,-3.170400673E0,-1.761349170E0,3.821112556E0
7.445243667E0,8.712371787E-1,-3.065175349E0,-8.166689157E-1,3.289574784E0
7.455179667E0,6.286633909E-1,-2.681044271E0,-6.221086621E-2,2.754466597E0
7.465115667E0,6.665716209E-1,-2.503628054E0,2.794366819E-1,2.605869532E0
7.475050667E0,8.376023863E-1,-2.511947472E0,9.364023507E-2,2.649570975E0
7.484986667E0,9.072914028E-1,-2.665407647E0,-6.088401604E-1,2.880670400E0
7.494921667E0,1.042504903E0,-2.782064277E0,-1.108878255E0,3.171168412E0
7.504857667E0,1.275811731E0,-2.544945064E0,-6.399958795E-1,2.917882053E0
7.514792667E0,1.719863175E0,-2.514230810E0,6.354274499E-1,3.111760587E0
7.524728667E0,2.335754785E0,-2.810073902E0,1.803683596E0,4.074989602E0
7.534664667E0,2.673086210E0,-3.288605061E0,2.257313510E0,4.801643199E0
7.544599667E0,2.658300649E0,-3.749618254E0,2.227417865E0,5.107601172E0
7.554535667E0,2.255006491E0,-4.113260981E0,2.748291344E0,5.436641930E0
7.564470667E0,1.305874313E0,-4.765271719E0,4.706420955E0,6.823746807E0
7.574406667E0,1.208756154E-1,-4.965584171E0,7.158154385E0,8.712681061E0
7.584341667E0,-9.249014622E-1,-4.309481843E0,9.136565064E0,1.014415584E1
7.594277667E0,-2.044965149E0,-3.883427983E0,1.012918079E1,1.103916658E1
7.604213667E0,-3.026528470E0,-3.857429801E0,1.026180266E1,1.137296061E1
7.614148667E0,-3.706290093E0,-3.740968468E0,1.001447011E1,1.131463844E1
7.624084667E0,-3.802321840E0,-3.363934155E0,9.937085724E0,1.115882508E1
7.634019667E0,-3.574834161E0,-3.304249871E0,1.040114181E1,1.148395652E1
7.643955667E0,-3.629585149E0,-3.598063102E0,1.107017087E1,1.219297459E1
7.653890667E0,-3.800300165E0,-3.626792226E0,1.134505549E1,1.250224729E1
7.663826667E0,-3.785932387E0,-3.641096855E0,1.116817722E1,1.234176052E1
7.673762667E0,-3.704233920E0,-3.692203274E0,1.137647609E1,1.252109908E1
7.683697417E0,-3.156512658E0,-4.275567993E0,1.221831493E1,1.332408622E1
7.693633417E0,-2.602524936E0,-4.999267057E0,1.319492040E1,1.434823095E1
7.703568417E0,-2.198210731E0,-5.647147322E0,1.336605670E1,1.467562180E1
7.713504417E0,-1.623646218E0,-6.214951723E0,1.261768327E1,1.415866459E1
7.723439417E0,-6.991208046E-1,-6.877938269E0,1.167813161E1,1.357105606E1
7.733375417E0,3.238164639E-1,-7.814734722E0,1.107794649E1,1.356081983E1
7.743311417E0,1.172274060E0,-8.869389993E0,1.072323100E1,1.396524216E1
7.753246417E0,1.911829457E0,-9.849573956E0,1.034310001E1,1.441002834E1
7.763182417E0,2.420271024E0,-1.077618690E1,9.684787139E0,1.468941857E1
7.773117417E0,2.677607278E0,-1.190611221E1,8.744639647E0,1.501312130E1
7.783053417E0,2.774912840E0,-1.301826432E1,7.722028288E0,1.538847192E1
7.792988417E0,2.876502072E0,-1.379912956E1,6.557333681E0,1.554634574E1
7.802924417E0,2.918460522E0,-1.435817951E1,4.853000126E0,1.543458263E1
7.812859417E0,2.342905345E0,-1.495375819E1,2.820493348E0,1.539672927E1
7.822795417E0,1.439678195E0,-1.527857686E1,1.122688209E0,1.538726789E1
7.832731417E0,9.557977843E-1,-1.530919289E1,2.941219640E-1,1.534182010E1
7.842666417E0,7.549301391E-1,-1.551722045E1,-4.975746632E-2,1.553565337E1
7.852602417E0,6.984273248E-1,-1.562775738E1,-4.041209543E-1,1.564857550E1
7.862537417E0,1.082828179E0,-1.543567167E1,-5.620220894E-1,1.548380914E1
7.872473417E0,1.805806135E0,-1.508399439E1,-5.241175139E-1,1.520074083E1
7.882409417E0,2.518881100E0,-1.431779513E1,-5.486601783E-1,1.454802555E1
7.892344417E0,2.592074499E0,-1.381039130E1,-8.326651436E-1,1.407618874E1
7.902280417E0,2.184218490E0,-1.360817821E1,-1.265195965E0,1.384030511E1
7.912215417E0,1.945726936E0,-1.324748803E1,-1.559224373E0,1.348009544E1
7.922151417E0,1.729868638E0,-1.286008778E1,-1.836100705E0,1.310517337E1
7.932086417E0,1.277978563E0,-1.253269516E1,-2.437834745E0,1.283139569E1
7.942022417E0,8.378501621E-1,-1.205549453E1,-3.295755621E0,1.252593096E1
7.951957417E0,6.067535815E-1,-1.142552487E1,-4.336029957E0,1.223568242E1
7.961893417E0,9.281358495E-1,-1.079109028E1,-4.718543695E0,1.181413222E1
7.971829417E0,1.331688162E0,-9.730812328E0,-4.357817559E0,1.074489068E1
7.981764417E0,1.185139396E0,-8.400227535E0,-4.304720748E0,9.513096171E0
7.991700417E0,8.368195903E-1,-7.392902552E0,-4.755769701E0,8.830210678E0
8.001635417E0,5.711674270E-1,-6.666539789E0,-5.339058698E0,8.560054484E0
8.011571417E0,9.082170171E-1,-5.842315101E0,-6.217152030E0,8.579655194E0
8.021506417E0,1.956316682E0,-5.142680545E0,-7.139859617E0,9.013985439E0
8.031442417E0,2.940989259E0,-4.693557665E0,-7.482550308E0,9.309535998E0
8.041378417E0,3.810059752E0,-4.030730748E0,-7.625732247E0,9.429482382E0
8.051313417E0,4.576523890E0,-3.440686462E0,-7.969125774E0,9.812739671E0
8.061249417E0,5.025071404E0,-2.858324833E0,-8.549620972E0,1.032072586E1
8.071184417E0,5.423676095E0,-2.215365584E0,-9.633468466E0,1.127509742E1
8.081120417E0,5.769989721E0,-1.759846435E0,-1.081573746E1,1.238426493E1
8.091055417E0,5.920916297E0,-1.533985451E0,-1.168685799E1,1.319064103E1
8.100991417E0,5.882014187E0,-1.600748960E0,-1.216054912E1,1.360292038E1
8.110927417E0,5.680495162E0,-1.848077411E0,-1.196347573E1,1.337191710E1
8.120862417E0,5.301173419E0,-2.086684740E0,-1.117344439E1,1.254203143E1
8.130798417E0,4.781048384E0,-2.544756199E0,-1.011057495E1,1.146987069E1
8.140733417E0,4.237091852E0,-3.051239095E0,-8.774748130E0,1.021074004E1
8.150669417E0,3.455236089E0,-3.299556311E0,-7.249242311E0,8.682006816E0
8.160604417E0,2.498193067E0,-3.247803190E0,-5.882792451E0,7.169131132E0
8.170540417E0,1.845552876E0,-2.951920044E0,-4.965049735E0,6.063960442E0
8.180476417E0,1.405891375E0,-2.498495368E0,-4.509453403E0,5.343611106E0
8.190411417E0,9.857054883E-1,-1.922285594E0,-4.479195231E0,4.972925410E0
8.200347417E0,8.382691151E-1,-1.510367963E0,-4.497182436E0,4.817525958E0
8.210282417E0,7.644067946E-1,-1.270377767E0,-4.379675621E0,4.623822657E0
8.220218417E0,4.310865587E-1,-1.257957112E0,-4.476764544E0,4.670086990E0
8.230153417E0,4.768112004E-2,-1.525884719E0,-4.672878402E0,4.915932285E0
8.240089417E0,-3.263687736E-1,-1.939140193E0,-4.687568947E0,5.083314263E0
8.250025417E0,-7.750554514E-1,-2.460713584E0,-4.108810372E0,4.851612615E0
8.259960417E0,-1.267962282E0,-2.659946932E0,-2.971436881E0,4.184791891E0
8.269896417E0,-1.543276677E0,-2.370078233E0,-1.732865628E0,3.316895690E0
8.279831417E0,-1.313336968E0,-2.001523553E0,-4.302316958E-1,2.432293123E0
8.289767417E0,-6.789498840E-1,-1.538125865E0,8.252824491E-1,1.872937597E0
8.299702417E0,9.791045666E-2,-1.418980075E0,1.435955712E0,2.021153066E0
8.309638417E0,6.201859514E-1,-1.600346671E0,1.420675768E0,2.228016993E0
8.319573417E0,7.418477981E-1,-2.100413418E0,9.309439749E-1,2.414276572E0
8.329509417E0,5.971017288E-1,-2.477702084E0,3.604252964E-1,2.573993879E0
8.339445417E0,5.114009893E-1,-2.651941509E0,-1.683144414E-1,2.706040371E0
8.349380417E0,4.790271489E-1,-2.833220397E0,-6.605821717E-1,2.948384920E0
8.359316417E0,6.054329878E-1,-2.896170352E0,-7.634633464E-1,3.055687826E0
8.369251417E0,9.597321564E-1,-2.803226520E0,-2.529055256E-1,2.973739386E0
8.379187417E0,1.460813249E0,-2.762473181E0,5.570823616E-1,3.174204496E0
8.389122417E0,2.117487872E0,-2.892890648E0,1.500887872E0,3.886545458E0
8.399058417E0,2.397965651E0,-2.908567618E0,2.568487124E0,4.561483416E0
8.408994417E0,1.958249479E0,-2.789813007E0,3.617650689E0,4.970431988E0
8.418929417E0,1.157537176E0,-2.558398923E0,4.914322216E0,5.660022986E0
8.428865417E0,5.184869376E-1,-2.270180600E0,6.253315889E0,6.672818615E0
8.438800417E0,-5.887641840E-2,-2.153646177E0,7.254289042E0,7.567454512E0
8.448736417E0,-9.235240044E-1,-2.242811245E0,8.108434517E0,8.463439560E0
8.458671417E0,-1.966812726E0,-2.194525085E0,8.947552648E0,9.420349836E0
8.468607417E0,-2.916651394E0,-2.038797944E0,9.751017966E0,1.038007244E1
8.478543417E0,-3.416702353E0,-1.841760225E0,1.083270608E1,1.150710462E1
8.488478417E0,-3.654306300E0,-1.884855228E0,1.168594115E1,1.238821433E1
8.498414417E0,-3.777942166E0,-1.954326582E0,1.187924074E1,1.261778903E1
8.508349417E0,-3.583709942E0,-1.801865696E0,1.126493928E1,1.195778215E1
8.518285417E0,-2.896427629E0,-1.836225251E0,1.038540812E1,1.093698853E1
8.528220417E0,-2.148133276E0,-2.111811249E0,9.835546485E0,1.028650563E1
8.538156417E0,-1.321306285E0,-2.162287484E0,9.407855405E0,9.743155586E0
8.548092417E0,-8.972349228E-1,-1.983336958E0,8.963071743E0,9.223627869E0
8.558027417E0,-8.436799823E-1,-1.942719859E0,8.661731392E0,8.916924754E0
8.567963417E0,-5.390578808E-1,-1.874783107E0,8.314477533E0,8.540253611E0
8.577898417E0,1.774936929E-1,-2.004938034E0,7.997630365E0,8.247022008E0
8.587834417E0,8.594516040E-1,-2.803644596E0,7.867111741E0,8.395863698E0
8.597769417E0,1.150918567E0,-3.836735043E0,7.821546729E0,8.787590259E0
8.607705417E0,1.200732751E0,-4.753893914E0,7.958479164E0,9.347655165E0
8.617641417E0,1.203235359E0,-5.893676459E0,8.929896396E0,1.076690518E1
8.627576417E0,1.085991815E0,-7.195981193E0,1.048145565E1,1.276018950E1
8.637512417E0,1.004205786E0,-8.776925048E0,1.177201216E1,1.471812192E1
8.647447417E0,8.945662536E-1,-1.062465981E1,1.207361622E1,1.610763340E1
8.657383417E0,7.655268288E-1,-1.203853995E1,1.127396738E1,1.651105133E1
8.667318417E0,7.537626694E-1,-1.307334392E1,9.591793022E0,1.623215860E1
8.677254792E0,7.271011202E-1,-1.414556306E1,7.874651141E0,1.620604087E1
8.687190792E0,7.810465086E-1,-1.501475985E1,6.697739362E0,1.645942768E1
8.697125792E0,1.230488062E0,-1.555634884E1,5.684229194E0,1.660796651E1
8.707061792E0,1.932653000E0,-1.606699671E1,4.223838845E0,1.672496175E1
8.716996792E0,2.689186811E0,-1.612675175E1,2.386200761E0,1.652264512E1
8.726932792E0,3.019122386E0,-1.581631839E1,6.510301602E-1,1.611505097E1
8.736867792E0,3.171081873E0,-1.514159648E1,-5.403213179E-1,1.547952362E1
8.746803792E0,3.049237009E0,-1.445275589E1,-1.187711002E0,1.481859158E1
8.756739792E0,2.295988602E0,-1.403254807E1,-1.536688035E0,1.430193620E1
8.766674792E0,1.248658431E0,-1.370242948E1,-1.981431789E0,1.390114360E1
8.776610792E0,4.739879454E-1,-1.326344509E1,-2.702519925E0,1.354427016E1
8.786545792E0,7.027435201E-1,-1.290631002E1,-3.827486794E0,1.348022040E1
8.796481792E0,1.343324706E0,-1.183486739E1,-4.249501105E0,1.264621948E1
8.806416792E0,1.206298715E0,-1.067552591E1,-3.322427987E0,1.124546743E1
8.816352792E0,1.099231811E0,-1.000272891E1,-2.067247426E0,1.027309146E1
8.826287792E0,1.363987012E0,-9.401379029E0,-1.040546524E0,9.556627296E0
8.836223792E0,1.586125073E0,-8.842446023E0,-3.126810265E-1,8.989016289E0
8.846159792E0,1.075029309E0,-8.407371663E0,-3.711391497E-1,8.483945460E0
8.856094792E0,6.646316609E-1,-7.796134145E0,-1.251656152E0,7.923893359E0
8.866030792E0,4.979930314E-1,-7.052300486E0,-2.455285029E0,7.484074009E0
8.875965792E0,5.488591298E-1,-6.249785925E0,-3.591684374E0,7.229195467E0
8.885901792E0,8.580569699E-1,-5.207264212E0,-5.069395638E0,7.317829901E0
8.895836792E0,1.322112177E0,-4.368240806E0,-6.619870237E0,8.040658574E0
8.905772792E0,1.945825315E0,-3.722100087E0,-7.617773017E0,8.698892513E0
8.915708792E0,2.649197996E0,-3.117931268E0,-8.099100022E0,9.073872744E0
8.925643792E0,3.213299355E0,-2.442818765E0,-8.498519815E0,9.408373681E0
8.935579792E0,3.960391667E0,-1.839869090E0,-9.213878118E0,1.019634103E1
8.945514792E0,4.670229614E0,-1.440876728E0,-9.980841608E0,1.111325198E1
8.955450792E0,5.167348779E0,-1.299742484E0,-1.017037560E1,1.148160980E1
8.965385792E0,5.307023558E0,-1.374452358E0,-9.897487210E0,1.131432152E1
8.975321792E0,5.342067676E0,-1.525321632E0,-9.379572423E0,1.090140688E1
8.985257792E0,5.336770098E0,-1.562525711E0,-8.753009936E0,1.037004265E1
8.995192792E0,5.329159362E0,-1.521198176E0,-8.339883685E0,1.001337322E1
9.005128792E0,5.153072802E0,-1.654843306E0,-7.792524658E0,9.487681815E0
9.015063792E0,4.856700245E0,-1.889497333E0,-7.040360472E0,8.759247285E0
9.024999792E0,4.315783680E0,-2.149786722E0,-6.473036127E0,8.071416755E0
9.034934792E0,3.598104032E0,-2.503647934E0,-6.105870745E0,7.516399614E0
9.044870792E0,2.781556739E0,-2.969954612E0,-5.735434431E0,7.032275336E0
9.054806792E0,1.981767565E0,-3.493807247E0,-5.282883328E0,6.636486120E0
9.064741792E0,1.464556198E0,-3.751364232E0,-4.782784714E0,6.252414580E0
9.074677792E0,1.326157866E0,-3.622002772E0,-4.487125225E0,5.917084717E0
9.084612792E0,1.576789994E0,-3.371342577E0,-4.255771952E0,5.653654779E0
9.094548792E0,2.594705454E0,-3.207762626E0,-4.222779622E0,5.903736545E0
9.104483792E0,2.858235078E0,-2.277257193E0,-4.156731813E0,5.534783415E0
9.114419792E0,1.893598862E0,-1.775052119E0,-3.815143906E0,4.614309234E0
9.124354792E0,1.473279659E0,-2.077252012E0,-3.827375112E0,4.597208840E0
9.134290792E0,1.558373019E0,-2.719201446E0,-4.102344521E0,5.162539447E0
9.144226792E0,1.587213825E0,-3.305808154E0,-4.185194305E0,5.564482603E0
9.154161792E0,1.248646590E0,-3.290231756E0,-3.713677758E0,5.116262875E0
9.164097792E0,1.040985942E0,-2.683330532E0,-2.852037322E0,4.051916999E0
9.174032792E0,1.165295116E0,-2.245945938E0,-2.106051303E0,3.292056797E0
9.183968792E0,1.690942554E0,-2.198761246E0,-1.186019987E0,3.016700374E0
9.193903792E0,2.201011547E0,-1.810535363E0,2.063020474E-1,2.857455278E0
9.203839792E0,2.316661579E0,-1.251761402E0,2.594344096E0,3.696545518E0
9.213775792E0,2.267510177E0,-2.174189492E0,2.900793745E0,4.275898350E0
9.223710792E0,2.715415959E0,-2.463482825E0,2.491790950E0,4.432973449E0
9.233646792E0,2.471613086E0,-2.224151611E0,1.292374992E0,3.567345618E0
9.243581792E0,1.695435262E0,-2.464703139E0,-9.903896928E-2,2.993170728E0
9.253517792E0,9.753812058E-1,-2.812667434E0,-9.353124297E-1,3.120460853E0
9.263452792E0,6.383716692E-1,-2.884147891E0,-7.223884106E-1,3.040998596E0
9.273388792E0,6.276629323E-1,-2.829856494E0,-3.938766325E-1,2.925267054E0
9.283324792E0,9.006074506E-1,-2.760431918E0,-4.443158841E-1,2.937429958E0
9.293259792E0,8.696857662E-1,-2.990862208E0,-3.650720787E-1,3.136062452E0
9.303195792E0,1.772943029E-1,-3.367493940E0,2.631492627E-1,3.382409827E0
9.313130792E0,-1.245871063E0,-3.545006344E0,1.671731234E0,4.112657292E0
9.323066792E0,-2.740101149E0,-3.346465014E0,4.035841799E0,5.915657311E0
9.333001792E0,-3.582225333E0,-2.615638486E0,6.632239437E0,7.978753222E0
9.342937792E0,-3.603647777E0,-1.667179615E0,8.450828755E0,9.337144736E0
9.352873792E0,-3.603754197E0,-1.352310268E0,9.373266785E0,1.013281390E1
9.362808792E0,-3.599188106E0,-1.315376038E0,9.665867304E0,1.039775744E1
9.372744792E0,-3.065129741E0,-1.636184987E0,9.181509102E0,9.816935929E0
9.382679792E0,-2.402112204E0,-2.216847269E0,8.512698144E0,9.118694234E0
9.392615792E0,-2.233106037E0,-2.672890913E0,8.361668072E0,9.058068301E0
9.402550792E0,-2.049758112E0,-3.144751861E0,8.525259717E0,9.315096662E0
9.412486792E0,-1.921349601E0,-3.262388484E0,9.008152606E0,9.771467459E0
9.422422792E0,-2.082751903E0,-3.271563351E0,9.741385848E0,1.048501695E1
9.432357792E0,-1.994189975E0,-3.311579356E0,1.045188628E1,1.114384487E1
9.442293792E0,-1.621385830E0,-3.233336009E0,1.119562171E1,1.176542814E1
9.452228792E0,-9.826225439E-1,-3.490114730E0,1.165246233E1,1.220353745E1
9.462164792E0,1.250707003E-1,-4.348188365E0,1.142797135E1,1.222787446E1
9.472099792E0,1.192779368E0,-5.190175724E0,1.110800703E1,1.231862277E1
9.482035792E0,1.690457089E0,-5.924274938E0,1.144847870E1,1.300085933E1
9.491970792E0,1.663197515E0,-6.971125930E0,1.229608407E1,1.423223475E1
9.501906792E0,1.147277359E0,-8.195739879E0,1.268868250E1,1.514889636E1
9.511842792E0,5.231382515E-1,-9.325904338E0,1.216378731E1,1.533635833E1
9.521777792E0,2.573820077E-1,-1.038803703E1,1.102657871E1,1.515133647E1
9.531713792E0,4.520678303E-1,-1.152440597E1,9.701855747E0,1.507124093E1
9.541648792E0,1.133025648E0,-1.242282831E1,8.744534397E0,1.523408324E1
9.551584792E0,1.586567708E0,-1.341844074E1,8.101346523E0,1.575447760E1
9.561520792E0,1.236667692E0,-1.463944345E1,7.294168807E0,1.640266899E1
9.571455792E0,2.946549377E-1,-1.568653125E1,5.930053157E0,1.677258521E1
9.581391792E0,-2.554630977E-1,-1.636404228E1,3.973181866E0,1.684141667E1
9.591326792E0,3.119013368E-1,-1.624069527E1,2.071611203E0,1.637525689E1
9.601262792E0,1.737814419E0,-1.562594357E1,1.092567155E0,1.576019716E1
9.611197792E0,2.921896931E0,-1.514902829E1,1.070855859E0,1.546535716E1
9.621133792E0,3.569600318E0,-1.464672089E1,1.318569495E0,1.513298070E1
9.631068792E0,3.651568049E0,-1.405243796E1,1.448561578E0,1.459120600E1
9.641004792E0,3.503142326E0,-1.377585531E1,1.308717960E0,1.427441551E1
9.650940792E0,3.158826694E0,-1.320614354E1,5.030920593E-1,1.358799157E1
9.660875792E0,2.572904695E0,-1.268454969E1,-8.027092731E-1,1.296772846E1
9.670811792E0,1.712034922E0,-1.174251881E1,-2.681928370E0,1.216595871E1
9.680747292E0,1.145776818E0,-1.078529452E1,-3.672442608E0,1.145086098E1
9.690683292E0,7.250807610E-1,-1.046689024E1,-3.011971826E0,1.091574586E1
9.700618292E0,7.229222614E-1,-1.001334511E1,-2.227172867E0,1.028348170E1
9.710554292E0,9.143779358E-1,-9.234043411E0,-2.463270571E0,9.600590952E0
9.720490292E0,9.987003404E-1,-8.479159684E0,-3.564829867E0,9.252111289E0
9.730425292E0,1.122196166E0,-7.774683634E0,-4.561699152E0,9.083728805E0
9.740361292E0,1.785829415E0,-7.278541539E0,-5.086281227E0,9.057406381E0
9.750296292E0,2.320595001E0,-6.994421237E0,-5.600601146E0,9.256015493E0
9.760232292E0,2.612221958E0,-6.554864402E0,-6.348968736E0,9.492067999E0
9.770167292E0,3.045036369E0,-6.141766217E0,-7.237638511E0,9.968798823E0
9.780103292E0,3.562120852E0,-5.617009018E0,-7.868325623E0,1.030291432E1
9.790039292E0,4.054486231E0,-4.886704062E0,-8.309217378E0,1.045762060E1
9.799974292E0,4.856738836E0,-3.748967459E0,-8.702811005E0,1.064807910E1
9.809910292E0,5.834516085E0,-2.507684852E0,-9.489211224E0,1.141819561E1
9.819845292E0,6.760478817E0,-1.840381306E0,-1.060153641E1,1.270762179E1
9.829781292E0,7.301562611E0,-1.666920145E0,-1.117443023E1,1.345211249E1
9.839716292E0,7.435144592E0,-1.733718737E0,-1.117599144E1,1.353476784E1
9.849652292E0,7.828098534E0,-2.120595667E0,-1.097976473E1,1.365032183E1
9.859588292E0,8.126588953E0,-3.035642232E0,-1.043497497E1,1.357001379E1
9.869523292E0,7.879767455E0,-4.641003476E0,-9.805205283E0,1.340789689E1
9.879459292E0,6.964920865E0,-5.747115998E0,-8.703902096E0,1.254182509E1
9.889394292E0,5.145031711E0,-5.749923831E0,-6.931946077E0,1.037231179E1
9.899330292E0,3.420628758E0,-5.561140627E0,-5.034822806E0,8.244781795E0
9.909265292E0,2.533840032E0,-5.146950767E0,-4.137251229E0,7.073068305E0
9.919201292E0,2.151739107E0,-4.059091498E0,-3.928725486E0,6.044922573E0
9.929137292E0,1.949193896E0,-2.955447085E0,-4.006640804E0,5.346699435E0
9.939072292E0,2.131125918E0,-1.959859802E0,-4.270246149E0,5.159239314E0
9.949008292E0,2.351941924E0,-1.123888643E0,-4.273090235E0,5.005402746E0
9.958943292E0,2.079689131E0,-1.031003868E0,-4.313883335E0,4.898741194E0
9.968879292E0,2.096074491E0,-1.198440642E0,-4.424011549E0,5.040006590E0
9.978814292E0,2.330221272E0,-1.340496408E0,-4.451778222E0,5.200499123E0
9.988750292E0,2.380662863E0,-1.627433898E0,-4.655185897E0,5.476025246E0
9.998685292E0,1.945657792E0,-1.782106200E0,-4.533432249E0,5.245330754E0
1.000862129E1,1.463407804E0,-1.921329575E0,-4.378804970E0,5.000700221E0
1.001855729E1,1.224399649E0,-2.290630944E0,-4.219570962E0,4.954888872E0
1.002849229E1,1.156229885E0,-2.721809304E0,-3.689396026E0,4.728293188E0
1.003842829E1,1.183903295E0,-3.081345824E0,-2.879099990E0,4.380129662E0
1.004836329E1,1.219966582E0,-3.386883307E0,-2.017095857E0,4.126496419E0
1.005829929E1,1.327973426E0,-3.636168237E0,-1.179013853E0,4.046641389E0
1.006823429E1,1.764397615E0,-3.703277315E0,-3.585348916E-1,4.117755346E0
1.007817029E1,2.324420542E0,-3.640009857E0,3.759888303E-1,4.335201289E0
1.008810629E1,2.831569144E0,-3.812769352E0,1.154958408E0,4.887629576E0
1.009804129E1,2.995005838E0,-4.158202388E0,1.589528153E0,5.365380398E0
1.010797729E1,2.459974203E0,-4.585554330E0,1.549808017E0,5.429612001E0
1.011791229E1,1.291763227E0,-4.940297887E0,1.072983953E0,5.217900920E0
1.012784829E1,9.396095484E-2,-4.999150112E0,7.815441066E-1,5.060745172E0
1.013778329E1,-5.104854615E-1,-4.625192312E0,1.391768888E0,4.856955834E0
1.014771929E1,-6.491748387E-1,-4.389462690E0,3.161256797E0,5.448151541E0
1.015765529E1,-6.893346121E-1,-4.224156349E0,5.067482429E0,6.633103137E0
1.016759029E1,-5.665668377E-1,-3.790521866E0,6.153122095E0,7.249135501E0
1.017752629E1,-7.374623863E-1,-3.507819807E0,6.622009149E0,7.529917379E0
1.018746129E1,-1.455639047E0,-3.450246660E0,7.050413589E0,7.983196029E0
1.019739729E1,-2.338644771E0,-3.030816233E0,7.646758250E0,8.551492158E0
1.020733229E1,-3.024558835E0,-2.732360020E0,8.536145478E0,9.459361874E0
1.021726829E1,-3.711109076E0,-2.634231170E0,9.567342889E0,1.059460025E1
1.022720429E1,-4.141070923E0,-2.219869110E0,1.071103254E1,1.169626032E1
1.023713929E1,-4.130284272E0,-1.985969959E0,1.222309912E1,1.305402149E1
1.024707529E1,-4.144653804E0,-2.385817768E0,1.364709026E1,1.446075220E1
1.025701029E1,-3.967489310E0,-3.102766221E0,1.419840201E1,1.506528291E1
1.026694629E1,-3.460533081E0,-3.771076658E0,1.347144458E1,1.441097247E1
1.027688129E1,-2.652206388E0,-4.299929247E0,1.193257203E1,1.295800391E1
1.028681729E1,-1.828340135E0,-4.494585103E0,1.055413771E1,1.161610717E1
1.029675329E1,-9.930408935E-1,-4.515537138E0,1.021175868E1,1.120964858E1
1.030668829E1,-9.983265571E-2,-4.678053773E0,1.064886027E1,1.163152521E1
1.031662429E1,5.284709121E-1,-4.995282179E0,1.120835461E1,1.228248096E1
1.032655929E1,8.730131974E-1,-5.476522061E0,1.109275515E1,1.240176047E1
1.033649529E1,1.288031681E0,-6.023191701E0,1.038730963E1,1.207617760E1
1.034643029E1,1.584854035E0,-6.517115947E0,9.489432249E0,1.162040821E1
1.035636629E1,1.561391351E0,-7.245976641E0,8.418258594E0,1.121646995E1
1.036630129E1,1.490084118E0,-7.836043146E0,7.228786411E0,1.076472368E1
1.037623729E1,1.249401904E0,-8.457506275E0,6.070911412E0,1.048553207E1
1.038617329E1,9.712080480E-1,-9.050837281E0,4.990341282E0,1.038096367E1
1.039610829E1,9.550090680E-1,-9.298224789E0,3.997997450E0,1.016626825E1
1.040604429E1,1.219613118E0,-9.374679472E0,3.196082813E0,9.979329472E0
1.041597929E1,1.292716908E0,-9.792996297E0,2.476217476E0,1.018359202E1
1.042591529E1,1.034552543E0,-1.011429729E1,1.601177561E0,1.029237962E1
1.043585029E1,6.757112575E-1,-1.025740789E1,6.546031013E-1,1.030046152E1
1.044578629E1,6.108391772E-1,-1.019540168E1,8.341930211E-2,1.021402461E1
1.045572229E1,8.123780827E-1,-1.012118180E1,-1.295593885E-1,1.015455882E1
1.046565729E1,1.281737445E0,-9.846369681E0,1.455526927E-1,9.930510177E0
1.047559329E1,1.556035594E0,-9.691965181E0,5.021540563E-1,9.828916244E0
1.048552829E1,1.590714261E0,-9.839350684E0,8.123150790E-1,1.000015247E1
1.049546429E1,1.430060841E0,-9.779938880E0,8.027793666E-1,9.916487947E0
1.050539929E1,1.675612177E0,-9.818141663E0,4.541555786E-1,9.970448294E0
1.051533529E1,1.746884035E0,-9.989565654E0,5.696708322E-2,1.014131505E1
1.052527129E1,1.335556388E0,-9.849442978E0,-7.778097092E-1,9.969966188E0
1.053520629E1,1.118951108E0,-9.408656473E0,-1.899113810E0,9.663410447E0
1.054514229E1,1.269142104E0,-8.763665317E0,-2.343435395E0,9.159925814E0
1.055507729E1,1.174384028E0,-7.944254057E0,-2.640651413E0,8.453602206E0
1.056501329E1,8.240195967E-1,-7.235359266E0,-3.450139071E0,8.058094788E0
1.057494829E1,6.828463224E-1,-6.749229943E0,-4.220758532E0,7.989567354E0
1.058488429E1,7.617102049E-1,-6.204219743E0,-4.370967947E0,7.627444254E0
1.059482029E1,8.253508615E-1,-6.142109449E0,-4.130438346E0,7.447632742E0
1.060475529E1,7.490734948E-1,-6.431926693E0,-3.463242096E0,7.343353314E0
1.061469129E1,5.083066428E-1,-6.510219741E0,-2.301082258E0,6.923605728E0
1.062462629E1,3.915976802E-1,-6.273030362E0,-1.234584036E0,6.405345924E0
1.063456229E1,7.639758548E-1,-6.082007089E0,-5.985695261E-1,6.158957283E0
1.064449729E1,1.365963371E0,-5.258382910E0,-7.550772697E-1,5.485124287E0
1.065443329E1,1.715803745E0,-4.191465443E0,-2.363512394E0,5.108674573E0
1.066436929E1,1.853175598E0,-3.576236615E0,-4.784371356E0,6.254113638E0
1.067430429E1,1.970204696E0,-3.043455867E0,-6.821952934E0,7.725501407E0
1.068423958E1,2.548144076E0,-2.367125974E0,-8.492269726E0,9.176871401E0
1.069417458E1,3.298816638E0,-2.104577805E0,-1.020526242E1,1.092972187E1
1.070411058E1,3.725310501E0,-2.301018523E0,-1.142709544E1,1.223728461E1
1.071404558E1,3.472392112E0,-2.296395714E0,-1.128770600E1,1.203092877E1
1.072398158E1,2.782391721E0,-2.386600710E0,-9.802702675E0,1.046568423E1
1.073391658E1,1.917053506E0,-3.089957018E0,-7.840136781E0,8.642376598E0
1.074385258E1,1.288923966E0,-3.864072822E0,-5.526701696E0,6.865625638E0
1.075378858E1,1.238108738E0,-3.795558658E0,-3.705182631E0,5.446793286E0
1.076372358E1,1.733366150E0,-2.735307017E0,-3.607729719E0,4.847904332E0
1.077365958E1,2.443199419E0,-1.676555772E0,-4.532188547E0,5.414868020E0
1.078359458E1,3.108314937E0,-8.510815340E-1,-5.229478369E0,6.142752277E0
1.079353058E1,3.532497688E0,-3.595400280E-1,-5.472401528E0,6.523418385E0
1.080346558E1,3.660749347E0,-3.072495478E-1,-5.539089607E0,6.646578198E0
1.081340158E1,3.419607834E0,-1.978153986E-1,-5.844803091E0,6.774553258E0
1.082333758E1,2.983079857E0,-3.728547227E-1,-6.383274350E0,7.055776180E0
1.083327258E1,2.174259074E0,-1.168122829E0,-6.521676775E0,6.973104146E0
1.084320858E1,1.152306403E0,-2.202106438E0,-6.059110562E0,6.549038373E0
1.085314358E1,3.709377131E-1,-2.813173803E0,-5.265912369E0,5.981753482E0
1.086307958E1,2.066251060E-1,-2.687636422E0,-4.455014071E0,5.207036954E0
1.087301458E1,6.973705137E-1,-2.256941042E0,-3.909629649E0,4.567856444E0
1.088295058E1,1.444562521E0,-1.712095733E0,-3.435744395E0,4.101508530E0
1.089288658E1,2.094358626E0,-1.172164425E0,-2.956035900E0,3.807683775E0
1.090282158E1,2.617542632E0,-5.565356469E-1,-2.443755197E0,3.623975830E0
1.091275758E1,2.922074979E0,-2.881700832E-1,-2.298045799E0,3.728616187E0
1.092269258E1,2.899739492E0,-6.941405118E-1,-2.295931153E0,3.763192797E0
1.093262858E1,2.651374329E0,-1.232612940E0,-2.371213762E0,3.764541831E0
1.094256358E1,2.233390796E0,-1.674038545E0,-2.795866045E0,3.950608363E0
1.095249958E1,1.672093469E0,-2.336712851E0,-3.116753638E0,4.239136322E0
1.096243558E1,1.301991908E0,-2.908788058E0,-3.397349238E0,4.658134041E0
1.097237058E1,1.360295372E0,-3.275203827E0,-3.606604130E0,5.058157467E0
1.098230658E1,1.766594122E0,-3.310498790E0,-3.445266586E0,5.094125919E0
1.099224158E1,2.400055738E0,-3.282922736E0,-2.204447663E0,4.625736562E0
1.100217758E1,3.178360780E0,-3.347530961E0,2.566033047E-1,4.623179213E0
1.101211258E1,4.077530985E0,-3.928907334E0,2.881966880E0,6.353605659E0
1.102204858E1,4.555981744E0,-4.722398179E0,4.673455523E0,8.056004018E0
1.103198358E1,4.474922378E0,-4.746908538E0,5.398963423E0,8.467991320E0
1.104191958E1,3.996349997E0,-4.356668874E0,5.371623597E0,7.987848085E0
1.105185558E1,3.097261360E0,-4.064086774E0,5.086788765E0,7.210079693E0
1.106179058E1,2.096370945E0,-3.940195092E0,4.996074477E0,6.699303597E0
1.107172658E1,1.479107286E0,-3.658513079E0,5.617504862E0,6.865044587E0
1.108166158E1,1.180517465E0,-3.664292175E0,7.635729232E0,8.551316830E0
1.109159758E1,-2.189016277E-1,-3.727980925E0,1.049586670E1,1.114042089E1
1.110153258E1,-1.973541702E0,-3.367299228E0,1.256363628E1,1.315593127E1
1.111146858E1,-3.261680387E0,-3.087884181E0,1.261941755E1,1.339489780E1
1.112140458E1,-4.309688835E0,-2.927943244E0,1.113705600E1,1.229553926E1
1.113133958E1,-4.912288554E0,-2.472844802E0,9.296247261E0,1.080119222E1
1.114127558E1,-4.868751356E0,-2.079221646E0,7.805987872E0,9.431932415E0
1.115121058E1,-4.435624119E0,-1.903692179E0,6.895927813E0,8.417400171E0
1.116114658E1,-3.604420195E0,-2.022105021E0,6.364110686E0,7.588323825E0
1.117108158E1,-2.371503638E0,-2.076617150E0,6.070259448E0,6.839913600E0
1.118101758E1,-1.166066802E0,-1.724148307E0,6.117869232E0,6.462253717E0
1.119095358E1,-2.197211149E-1,-1.384284452E0,6.677795679E0,6.823303888E0
1.120088858E1,4.868201718E-1,-1.314783862E0,7.892896793E0,8.016449979E0
1.121082458E1,1.013123813E0,-1.662158465E0,9.700754131E0,9.894130651E0
1.122075958E1,1.376191320E0,-2.341107618E0,1.179877604E1,1.210726242E1
1.123069558E1,1.570210414E0,-3.442240067E0,1.329164621E1,1.381963952E1
1.124063058E1,1.644063087E0,-4.791688562E0,1.337462404E1,1.430188068E1
1.125056658E1,1.677833535E0,-5.995504550E0,1.225030972E1,1.374158974E1
1.126050258E1,1.714328200E0,-7.086476292E0,1.057653489E1,1.284601719E1
1.127043758E1,1.808484306E0,-8.121173261E0,9.128210562E0,1.235104444E1
1.128037358E1,1.571349890E0,-9.030190762E0,8.124872210E0,1.224855233E1
1.129030858E1,1.201399626E0,-9.552886818E0,6.995090743E0,1.190093703E1
1.130024458E1,1.269261095E0,-9.659145344E0,5.536533789E0,1.120550396E1
1.131017958E1,1.612406992E0,-9.732257760E0,4.394273779E0,1.079936755E1
1.132011558E1,1.810019639E0,-1.004853950E1,3.797694646E0,1.089365879E1
1.133005158E1,1.964834759E0,-1.046238788E1,3.381161222E0,1.116935034E1
1.133998658E1,1.868056762E0,-1.098590547E1,2.980776054E0,1.153537087E1
1.134992258E1,1.671341079E0,-1.162957048E1,2.480664868E0,1.200808014E1
1.135985758E1,1.797648684E0,-1.201400971E1,2.006551866E0,1.231236047E1
1.136979358E1,1.778606057E0,-1.209474221E1,1.612471458E0,1.233070529E1
1.137972858E1,1.699760886E0,-1.191460938E1,1.201633514E0,1.209508275E1
1.138966458E1,1.740341878E0,-1.174415135E1,8.301955721E-1,1.190139090E1
1.139959958E1,1.724408800E0,-1.170341380E1,4.927635741E-1,1.184002940E1
1.140953558E1,1.486829265E0,-1.159212374E1,-9.642643332E-3,1.168709062E1
1.141947158E1,1.410696325E0,-1.152436036E1,-5.199455255E-1,1.162201743E1
1.142940658E1,1.113302405E0,-1.128519871E1,-9.392674132E-1,1.137881257E1
1.143934258E1,6.712898123E-1,-1.086465644E1,-1.467604205E0,1.098386324E1
1.144927758E1,2.532016322E-1,-1.031934862E1,-2.057675095E0,1.052554482E1
1.145921358E1,2.737725572E-1,-9.472338499E0,-2.425723845E0,9.781834400E0
1.146914858E1,7.581923738E-1,-8.849703587E0,-2.272384123E0,9.168197143E0
1.147908458E1,1.488964815E0,-8.843109682E0,-2.243516712E0,9.243969510E0
1.148902058E1,1.616954079E0,-8.262695761E0,-2.891001121E0,8.901941878E0
1.149895558E1,1.084902186E0,-7.348189479E0,-3.571036979E0,8.241674980E0
1.150889158E1,6.772400120E-1,-6.765154250E0,-4.089622734E0,7.934165373E0
1.151882658E1,6.380569428E-1,-6.172790374E0,-4.362269629E0,7.585502883E0
1.152876258E1,1.068896164E0,-5.678677263E0,-4.722839644E0,7.462916908E0
1.153869758E1,1.700984854E0,-5.179782298E0,-5.064358261E0,7.441183960E0
1.154863358E1,2.253725658E0,-4.429479280E0,-5.280902292E0,7.251723591E0
1.155856958E1,2.321370634E0,-4.008772114E0,-5.552480316E0,7.231117005E0
1.156850458E1,1.936835513E0,-3.972963181E0,-6.030504813E0,7.476814599E0
1.157844058E1,1.885951581E0,-3.733941284E0,-6.439344471E0,7.678820748E0
1.158837558E1,2.000611387E0,-3.582949219E0,-6.640291053E0,7.805987208E0
1.159831158E1,2.043391078E0,-3.401751022E0,-7.061901029E0,8.100481669E0
1.160824658E1,2.154224759E0,-3.191317332E0,-7.297708712E0,8.251166164E0
1.161818258E1,2.274029822E0,-2.909489724E0,-7.254487263E0,8.140265815E0
1.162811758E1,2.514058317E0,-2.298339329E0,-7.488660064E0,8.226960705E0
1.163805358E1,2.828287978E0,-1.615567558E0,-8.185312539E0,8.809575063E0
1.164798958E1,2.971613174E0,-1.161296205E0,-8.972646559E0,9.522997428E0
1.165792458E1,2.960068139E0,-1.055478559E0,-9.400584392E0,9.911963745E0
1.166786058E1,2.802007375E0,-1.529422869E0,-9.239724566E0,9.775627330E0
1.167779558E1,2.555059285E0,-2.234723377E0,-8.842654184E0,9.471792309E0
1.168773292E1,2.344051399E0,-2.757997722E0,-8.234685259E0,8.995063630E0
1.169766792E1,2.000262016E0,-2.903084684E0,-7.635708767E0,8.410291147E0
1.170760392E1,1.645139267E0,-3.009182412E0,-7.127442470E0,7.909620607E0
1.171753992E1,1.223782475E0,-3.255226230E0,-6.727308147E0,7.573032171E0
1.172747492E1,7.885403001E-1,-3.333236858E0,-6.247352314E0,7.124722780E0
1.173741092E1,3.067238832E-1,-3.317613097E0,-5.692159188E0,6.595552473E0
1.174734592E1,3.982889414E-2,-3.326314339E0,-5.004096272E0,6.008904469E0
1.175728192E1,-8.818332106E-2,-3.099154104E0,-4.350513802E0,5.342237621E0
1.176721692E1,-6.364109516E-3,-2.645036532E0,-3.982725692E0,4.781042009E0
1.177715292E1,3.280676821E-1,-2.280883051E0,-3.639165519E0,4.307386862E0
1.178708892E1,8.814253673E-1,-2.080301335E0,-3.372175806E0,4.059080436E0
1.179702392E1,1.364390762E0,-2.278134860E0,-2.862344794E0,3.904417794E0
1.180695992E1,1.278307761E0,-2.665083711E0,-2.033146757E0,3.587537826E0
1.181689492E1,9.371545950E-1,-2.465464447E0,-1.024934750E0,2.829711101E0
1.182683092E1,8.503304592E-1,-2.052866784E0,-1.419990474E-1,2.226541635E0
1.183676592E1,1.027793454E0,-1.657406725E0,7.062135503E-1,2.074148986E0
1.184670192E1,1.545445409E0,-1.172642142E0,1.473087870E0,2.435873350E0
1.185663792E1,2.274160800E0,-6.172279912E-1,2.100383597E0,3.156642043E0
1.186657292E1,2.794711804E0,-3.037628531E-1,2.198954789E0,3.569045826E0
1.187650892E1,3.022652935E0,-3.754859698E-1,1.790071278E0,3.532955655E0
1.188644392E1,3.061016809E0,-5.973310858E-1,1.149996461E0,3.324021690E0
1.189637992E1,2.759304575E0,-1.259497853E0,6.644126827E-1,3.105083057E0
1.190631492E1,2.305040238E0,-2.068569481E0,3.956109166E-1,3.122290537E0
1.191625092E1,1.493507809E0,-2.901323503E0,3.766454726E-1,3.284829593E0
1.192618592E1,2.734193122E-1,-3.741810174E0,4.520114046E-1,3.778917280E0
1.193612192E1,-5.701029414E-1,-3.957953378E0,3.568052852E-1,4.014688321E0
1.194605792E1,-6.391351694E-1,-3.616536795E0,5.060887939E-1,3.707284454E0
1.195599292E1,-3.167234990E-1,-3.101530705E0,1.607732289E0,3.507792697E0
1.196592892E1,5.802045912E-2,-2.398091658E0,3.461047636E0,4.211064084E0
1.197586392E1,8.612638754E-1,-1.262094309E0,5.591050889E0,5.796076910E0
1.198579992E1,1.379155274E0,-3.837596337E-1,7.423839585E0,7.560604137E0
1.199573492E1,9.871517971E-1,-1.829003209E-1,8.391991147E0,8.451830371E0
1.200567092E1,5.760589153E-2,-4.771077273E-1,8.310659301E0,8.324542525E0
1.201560692E1,-7.903549835E-1,-6.812846772E-1,7.787086163E0,7.856686370E0
1.202554192E1,-1.282120146E0,-6.829706488E-1,7.488033827E0,7.627642596E0
1.203547792E1,-1.213765317E0,-1.221422831E0,7.448779129E0,7.645221416E0
1.204541292E1,-1.031027257E0,-1.569860020E0,7.777381539E0,8.000946275E0
1.205534892E1,-6.251916066E-1,-1.399711892E0,8.014794282E0,8.160084884E0
1.206528392E1,-1.230524607E-1,-1.335525690E0,8.042487280E0,8.153549683E0
1.207521992E1,9.462022841E-2,-1.186076924E0,8.438269520E0,8.521744185E0
1.208515592E1,2.960006744E-3,-1.418768698E0,9.152444932E0,9.261758019E0
1.209509092E1,-8.644143552E-2,-2.114078946E0,9.888862567E0,1.011268534E1
1.210502692E1,-1.732013981E-1,-2.493822273E0,1.049351261E1,1.078716623E1
1.211496192E1,2.343879783E-1,-3.341736370E0,1.045684238E1,1.098033207E1
1.212489792E1,5.028048514E-1,-4.175792567E0,1.036455227E1,1.118543696E1
1.213483292E1,5.658702882E-1,-4.642617892E0,1.034954481E1,1.135725265E1
1.214476892E1,8.849839827E-1,-5.227213157E0,1.082662147E1,1.205498596E1
1.215470492E1,1.703526639E0,-5.972685206E0,1.175306952E1,1.329321687E1
1.216463992E1,2.401691643E0,-7.125217604E0,1.239935993E1,1.450106807E1
1.217457592E1,2.805133004E0,-8.546782733E0,1.194784028E1,1.495550579E1
1.218451092E1,2.832813431E0,-9.951762235E0,1.037418380E1,1.465217025E1
1.219444692E1,2.580236519E0,-1.123137860E1,8.543974900E0,1.434576568E1
1.220438192E1,2.395072449E0,-1.208473061E1,7.344856566E0,1.434308209E1
1.221431792E1,2.507660878E0,-1.288962090E1,6.907374322E0,1.483720021E1
1.222425292E1,2.793251755E0,-1.388493628E1,6.679306599E0,1.565908195E1
1.223418892E1,2.897205309E0,-1.485447714E1,5.772217510E0,1.619777098E1
1.224412492E1,2.767049212E0,-1.532558263E1,4.058753529E0,1.609358644E1
1.225405992E1,2.346422737E0,-1.577939790E1,2.155935654E0,1.609792398E1
1.226399592E1,1.867486366E0,-1.576380572E1,6.402835625E-1,1.588694555E1
1.227393092E1,1.542746335E0,-1.542266980E1,-4.569423616E-2,1.549970638E1
1.228386692E1,1.069001853E0,-1.545005699E1,-1.083050519E-1,1.548737408E1
1.229380292E1,7.919550741E-1,-1.537756204E1,-2.091268373E-1,1.539936171E1
1.230373792E1,6.160218568E-1,-1.496743249E1,-6.257617101E-1,1.499316831E1
1.231367392E1,5.437512946E-1,-1.412979078E1,-1.316725137E0,1.420142310E1
1.232360892E1,4.857090181E-1,-1.330534623E1,-1.812579988E0,1.343702340E1
1.233354492E1,4.669415389E-1,-1.252339575E1,-1.986438321E0,1.268855439E1
1.234347992E1,6.239117242E-1,-1.171106079E1,-1.771085368E0,1.186064728E1
1.235341592E1,4.494149485E-1,-1.113709693E1,-1.434325508E0,1.123806885E1
1.236335092E1,2.323164560E-1,-1.074438272E1,-1.483143911E0,1.084875324E1
1.237328692E1,7.091722414E-2,-1.022381681E1,-1.859813650E0,1.039184133E1
1.238322292E1,2.817743987E-2,-9.609269180E0,-2.258913015E0,9.871247953E0
1.239315792E1,6.775725724E-1,-8.991479856E0,-2.388831131E0,9.328039920E0
1.240309392E1,1.390347283E0,-8.325278510E0,-2.654997557E0,8.848295873E0
1.241302892E1,1.432677470E0,-7.432091176E0,-3.123529100E0,8.188099781E0
1.242296492E1,1.106429734E0,-6.752295054E0,-3.489795472E0,7.680907999E0
1.243289992E1,7.795344186E-1,-6.551277720E0,-3.335544169E0,7.392751083E0
1.244283592E1,7.511640206E-1,-6.013277162E0,-2.894899752E0,6.715965618E0
1.245277192E1,9.967517558E-1,-4.896937274E0,-3.426998130E0,6.059523489E0
1.246270692E1,1.311117950E0,-3.900405666E0,-5.199300889E0,6.630605129E0
1.247264292E1,1.897629348E0,-3.160911811E0,-6.878736999E0,7.804446381E0
1.248257792E1,2.623125846E0,-2.862131370E0,-7.869338946E0,8.774912001E0
1.249251392E1,3.482667716E0,-2.847454859E0,-8.329813026E0,9.466929737E0
1.250244892E1,4.065948820E0,-2.741838942E0,-8.789619353E0,1.006513929E1
1.251238492E1,4.279520418E0,-2.525781984E0,-9.576932323E0,1.078941622E1
1.252232092E1,4.302487989E0,-2.290116389E0,-1.021404962E1,1.131736920E1
1.253225592E1,4.251509916E0,-2.050765879E0,-1.052727327E1,1.153709061E1
1.254219192E1,4.250118571E0,-1.845904586E0,-1.077729787E1,1.173119862E1
1.255212692E1,4.262152141E0,-1.735436649E0,-1.114274651E1,1.205564104E1
1.256206292E1,4.241147773E0,-1.751638699E0,-1.125222042E1,1.215187380E1
1.257199792E1,4.027899233E0,-2.056531819E0,-1.114318388E1,1.202596534E1
1.258193392E1,3.509854930E0,-2.319698623E0,-1.096343579E1,1.174295566E1
1.259186892E1,2.806738942E0,-2.626194465E0,-1.037425631E1,1.106344769E1
1.260180492E1,2.130325434E0,-2.995294690E0,-9.328532077E0,1.002654414E1
1.261174092E1,1.536844155E0,-3.312033100E0,-8.038745647E0,8.829093090E0
1.262167592E1,1.123486939E0,-3.374869033E0,-6.842319955E0,7.711634474E0
1.263161192E1,9.402822706E-1,-3.255056076E0,-5.744736181E0,6.669446349E0
1.264154692E1,6.671980038E-1,-3.044037080E0,-4.958414315E0,5.856380063E0
1.265148292E1,4.068027797E-1,-2.807799627E0,-4.724341502E0,5.510773981E0
1.266141792E1,1.905309373E-1,-2.920718717E0,-4.561025552E0,5.419396087E0
1.267135392E1,6.415009528E-2,-3.306713887E0,-4.224228562E0,5.364939787E0
1.268128846E1,-1.803331009E-1,-3.610521179E0,-4.045225118E0,5.425147875E0
1.269122346E1,-1.100743901E0,-3.627153000E0,-3.745770786E0,5.329040702E0
1.270115946E1,-1.823788954E0,-3.636931298E0,-3.446049528E0,5.331860160E0
1.271109446E1,-2.004517035E0,-3.848100568E0,-2.954622043E0,5.249357860E0
1.272103046E1,-2.181285380E0,-4.109534258E0,-1.653361037E0,4.937598652E0
1.273096546E1,-2.389886553E0,-4.374892598E0,1.222828209E-1,4.986601656E0
1.274090146E1,-2.606246104E0,-4.789713957E0,1.197469420E0,5.582813946E0
1.275083746E1,-2.560573502E0,-4.814122574E0,1.960151871E0,5.794351403E0
1.276077246E1,-2.217698331E0,-4.349214551E0,2.547916034E0,5.506880171E0
1.277070846E1,-1.651550300E0,-4.014295979E0,2.451905923E0,4.985381957E0
1.278064346E1,-1.035420562E0,-3.978536747E0,1.498761824E0,4.375744210E0
1.279057946E1,-4.912937303E-1,-3.831444774E0,7.401575142E-1,3.933086795E0
1.280051446E1,-3.158553337E-1,-3.661155143E0,9.810785866E-1,3.803463786E0
1.281045046E1,-3.663238214E-1,-3.526568611E0,2.586718742E0,4.388848729E0
1.282038546E1,-4.284010787E-1,-3.460368775E0,4.844400626E0,5.968743333E0
1.283032146E1,-3.285209875E-1,-3.453154480E0,6.533131471E0,7.396891828E0
1.284025746E1,5.944440231E-2,-3.632862221E0,7.045808322E0,7.927460909E0
1.285019246E1,3.149764971E-1,-3.763597777E0,6.453085427E0,7.477044199E0
1.286012846E1,5.002292991E-3,-3.496063687E0,5.070418900E0,6.158866304E0
1.287006346E1,-6.048004653E-1,-3.053891392E0,3.156163287E0,4.433215868E0
1.287999946E1,-8.882522839E-1,-2.512230477E0,1.219069619E0,2.930260198E0
1.288993446E1,-4.128549403E-1,-1.391153761E0,2.742437696E-1,1.476809951E0
1.289987046E1,5.023167551E-2,-5.783872765E-1,1.021091083E0,1.174598682E0
1.290980646E1,1.860247806E-2,-4.253486860E-1,2.760527812E0,2.793166905E0
1.291974146E1,-1.061184856E-1,-2.773778772E-1,4.230876262E0,4.241286781E0
1.292967746E1,-9.671075419E-2,-1.567568350E-1,4.874678679E0,4.878157223E0
1.293961246E1,1.403991030E-1,4.263380349E-2,4.867532796E0,4.869743840E0
1.294954846E1,4.397837073E-1,1.895228773E-1,4.658027644E0,4.682579435E0
1.295948346E1,9.851353848E-1,2.522781193E-1,6.773908702E0,6.849815696E0
1.296941946E1,2.676087879E0,1.427884215E-1,1.044383584E1,1.078218632E1
1.297935546E1,2.012710153E0,1.510721719E-1,3.131083995E0,3.725253272E0
1.298929046E1,1.377952794E0,9.786695337E-1,4.770599409E0,5.061142824E0
1.299922646E1,3.352639966E-1,7.039100397E-1,1.398996631E0,1.601587608E0
1.300916146E1,-7.558431087E-1,6.056195140E-1,-1.051726985E-1,9.742356477E-1
1.301909746E1,-9.331089064E-1,5.793514824E-1,1.429059505E-3,1.098336202E0
1.302903246E1,-1.027621546E0,5.480443203E-1,-5.467731357E-3,1.164640938E0
1.303896846E1,-1.239005701E0,3.524935484E-1,1.220980489E-1,1.293945425E0
1.304890346E1,-1.393183914E0,1.770285469E-1,5.163910031E-2,1.405335234E0
1.305883946E1,-1.248485353E0,1.763186949E-1,-1.452869368E-1,1.269217181E0
1.306877546E1,-7.577096862E-1,2.216071343E-1,-3.172816157E-2,7.900888347E-1
1.307871046E1,-3.658222765E-1,1.737897742E-1,2.337494624E-1,4.676191129E-1
1.308864646E1,-2.392516923E-1,1.915080070E-1,4.590567148E-1,5.519508641E-1
1.309858146E1,-1.492402393E-1,3.305495328E-1,9.462198257E-2,3.748185724E-1
1.310851746E1,-3.565257883E-1,2.428231716E-1,-1.615527213E-2,4.316650591E-1
1.311845246E1,-8.785152081E-1,2.145466214E-1,-4.541707814E-1,1.011973479E0
1.312838846E1,-1.232800636E0,1.695213068E-1,-6.182120776E-1,1.389503888E0
1.313832446E1,-9.623634034E-1,9.686438978E-2,-3.097965950E-1,1.015627865E0
1.314825946E1,-4.088291323E-1,1.691640419E-1,1.841323292E-1,4.792311000E-1
1.315819546E1,1.423022255E-1,3.933082831E-1,5.344179690E-1,6.786338442E-1
1.316813046E1,4.852241743E-1,5.581050396E-1,5.951436424E-1,9.492732429E-1
1.317806646E1,4.173590505E-1,6.092863029E-1,4.706903350E-1,8.757669596E-1
1.318800146E1,9.246436000E-2,4.999439549E-1,4.405333203E-1,6.727281934E-1
1.319793746E1,-2.673639357E-1,3.223640156E-1,5.311505449E-1,6.764044160E-1
1.320787346E1,-3.837688431E-1,2.080702454E-1,6.715328372E-1,8.009544952E-1
1.321780846E1,-3.451555851E-1,7.023324609E-2,8.400916922E-1,9.109440916E-1
1.322774446E1,-4.527504927E-1,5.554854870E-5,8.981264770E-1,1.005790326E0
1.323767946E1,-5.865961826E-1,-1.773577452E-2,7.821446157E-1,9.778342594E-1
1.324761546E1,-5.610228002E-1,1.055130064E-1,6.737875235E-1,8.831020347E-1
1.325755046E1,-3.930249855E-1,3.187533599E-1,6.943346393E-1,8.591699105E-1
1.326748646E1,-1.733471400E-1,4.420687991E-1,6.952795494E-1,8.419546935E-1
1.327742146E1,-8.883791685E-2,4.311812836E-1,5.823680609E-1,7.300424873E-1
1.328735746E1,-1.198673362E-1,3.279849440E-1,4.305644023E-1,5.543717222E-1
1.329729346E1,-2.517384213E-1,2.253668940E-1,2.524751705E-1,4.217892618E-1
1.330722846E1,-3.784467074E-1,1.152568066E-1,1.607949221E-1,4.270375262E-1
1.331716446E1,-4.214231578E-1,8.164642632E-2,1.489531410E-1,4.543684133E-1
1.332709946E1,-4.031283894E-1,1.027221304E-1,1.337088650E-1,4.369695585E-1
1.333703546E1,-3.816594601E-1,1.473463261E-1,1.728741002E-1,4.441399980E-1
1.334697046E1,-3.098483428E-1,1.671134233E-1,8.670426786E-2,3.625610595E-1
1.335690646E1,-2.674873120E-1,2.226520318E-1,4.630877852E-2,3.510952752E-1
1.336684246E1,-2.750424993E-1,2.515694368E-1,-1.123255974E-1,3.892975697E-1
1.337677746E1,-3.530104423E-1,2.123357892E-1,-4.026152962E-1,5.760225139E-1
1.338671346E1,-4.079345083E-1,1.756339860E-1,-5.759641904E-1,7.273187807E-1
1.339664846E1,-3.910989127E-1,1.461587566E-1,-5.226867002E-1,6.689709472E-1
1.340658446E1,-3.168278718E-1,1.547331136E-1,-3.341566801E-1,4.857807362E-1
1.341651946E1,-1.458307278E-1,2.389324343E-1,-1.781985748E-1,3.318283312E-1
1.342645546E1,-1.478728679E-1,2.555531448E-1,-1.002810348E0,1.045371891E0
1.343639146E1,4.430751050E-1,3.887071091E-1,-3.924351768E0,3.968368124E0
1.344632646E1,6.293460533E-1,2.702390116E-1,-1.402255869E-1,6.991200136E-1
1.345626246E1,4.216114381E-1,4.958766317E-1,1.575059218E0,1.704248039E0
1.346619746E1,2.846997607E-1,5.810173541E-1,1.361908911E0,1.507790106E0
1.347613346E1,-4.281331301E-3,6.659411448E-1,1.686237592E0,1.812979082E0
1.348606846E1,-1.478059173E-2,6.342498207E-1,2.081502353E0,2.176038452E0
1.349600446E1,1.651984602E-2,3.640020382E-1,2.108392528E0,2.139647037E0
1.350593946E1,-1.792820638E-1,9.532072484E-2,1.090793987E0,1.109531262E0