"Time (s)","Linear Acceleration x (m/s^2)","Linear Acceleration y (m/s^2)","Linear Acceleration z (m/s^2)","Absolute acceleration (m/s^2)"
2.077916666E-3,1.265916342E-1,1.636775994E-1,1.287609512E-1,2.437112655E-1
1.201391665E-2,4.897560588E-1,-1.749141937E-1,-4.955456793E-1,7.183463597E-1
2.194891666E-2,5.070866212E-1,4.838307828E-2,-3.747299248E-1,6.323766917E-1
3.188391667E-2,5.926764098E-1,5.188468337E-1,-6.178594905E-1,1.001108243E0
4.181991666E-2,8.143544416E-1,6.982361940E-1,-8.888522083E-1,1.393113487E0
5.175491667E-2,9.535808855E-1,7.849425083E-1,-8.720502341E-1,1.511926869E0
6.169091666E-2,9.585172512E-1,9.737186962E-1,-6.968302310E-1,1.533771753E0
7.162591667E-2,1.021141954E0,1.204737217E0,-7.114570409E-1,1.732135610E0
8.156091667E-2,1.008720714E0,1.328340923E0,-8.057615197E-1,1.852365707E0
9.149691666E-2,1.149931410E0,1.316450903E0,-8.286808509E-1,1.934450098E0
1.014319167E-1,1.580192050E0,1.160516771E0,-7.859511530E-1,2.112232304E0
1.113669167E-1,1.006185946E0,9.410374385E-1,-9.268310434E-1,1.660414828E0
1.213029167E-1,4.296156916E-1,5.234304661E-1,-8.382942581E-1,1.077629973E0
1.312379166E-1,1.548357323E-1,1.651551908E-1,-5.656140339E-1,6.092368804E-1
1.411739167E-1,1.302248016E-2,8.393707305E-2,-3.432298046E-1,3.535841003E-1
1.511089167E-1,1.025363351E-1,2.165276581E-1,-2.325548762E-1,3.338857547E-1
1.610439167E-1,4.208809016E-1,4.583626503E-1,-4.549987471E-1,7.708832028E-1
1.709799167E-1,8.743864160E-1,7.575617516E-1,-8.407880956E-1,1.430166436E0
1.809149167E-1,1.117721292E0,8.966635036E-1,-1.153122382E0,1.839292678E0
1.908499167E-1,1.377494226E0,1.071613658E0,-1.471752366E0,2.282958870E0
2.007859166E-1,1.474596305E0,1.225811166E0,-1.802567362E0,2.631785777E0
2.107209167E-1,1.741437500E0,1.161277201E0,-1.678713979E0,2.683141802E0
2.206569167E-1,1.436222198E0,9.054831514E-1,-1.159299966E0,2.055872163E0
2.305919167E-1,8.550908236E-1,3.880104133E-1,-5.238432795E-1,1.075241451E0
2.405269167E-1,2.383395997E-1,-6.131185681E-2,9.771691382E-2,2.647895463E-1
2.504629167E-1,-7.936038427E-2,2.136017114E-2,5.314201015E-1,5.377375306E-1
2.603979167E-1,2.461163235E-1,3.709692881E-1,4.584117669E-1,6.390092373E-1
2.703329167E-1,4.802706324E-1,5.792570499E-1,-1.164531469E-2,7.525518079E-1
2.802689167E-1,6.859060972E-1,8.796407971E-1,-3.382146478E-1,1.165600384E0
2.902039167E-1,8.481112947E-1,1.142993835E0,-6.455641830E-1,1.562843815E0
3.001399167E-1,1.000120044E0,1.450916105E0,-1.101570405E0,2.078185508E0
3.100749167E-1,1.215345966E0,1.775518289E0,-1.274612321E0,2.500833377E0
3.200099167E-1,1.370394683E0,1.763833359E0,-1.047386012E0,2.467003682E0
3.299459167E-1,1.341424215E0,1.750070183E0,-4.722433555E-1,2.255034003E0
3.398809167E-1,1.044442085E0,1.674706444E0,4.774970788E-1,2.030641377E0
3.498169167E-1,8.508092730E-1,1.434327262E0,1.271264790E0,2.096970500E0
3.597519167E-1,9.587699240E-1,1.254814379E0,1.596588666E0,2.245638943E0
3.696869167E-1,1.049857776E0,1.280410420E0,1.517113311E0,2.245725939E0
3.796229167E-1,1.087204527E0,1.346227410E0,1.199032381E0,2.105236465E0
3.895579167E-1,1.172271063E0,1.359078567E0,9.872719574E-1,2.048418882E0
3.994929167E-1,8.745683375E-1,1.040483959E0,1.404346249E0,1.954396334E0
4.094289167E-1,2.496358722E-1,6.926597044E-1,2.630525497E0,2.731622215E0
4.193639167E-1,-8.649091758E-3,6.790066751E-1,4.563059506E0,4.613310843E0
4.292999167E-1,-4.972015377E-1,2.031994234E-1,5.960266305E0,5.984419253E0
4.392349167E-1,-1.096654651E0,-4.286235287E-1,6.696295100E0,6.799024755E0
4.491699167E-1,-1.890238175E0,-6.351649100E-1,7.080743097E0,7.356178194E0
4.591059167E-1,-2.313801267E0,-9.279864532E-1,7.174522496E0,7.595301719E0
4.690409167E-1,-2.007288030E0,-1.582237844E0,7.597655672E0,8.016049747E0
4.789759167E-1,-1.983677266E0,-2.006448078E0,8.336044403E0,8.800593484E0
4.889119167E-1,-2.102126360E0,-2.463220285E0,8.944888657E0,9.513013323E0
4.988469167E-1,-1.970924196E0,-3.119197775E0,9.366517344E0,1.006705439E1
5.087829167E-1,-1.603816263E0,-3.966538845E0,9.650222493E0,1.055615703E1
5.187179167E-1,-7.286277551E-1,-4.794030372E0,9.858512009E0,1.098653197E1
5.286529167E-1,3.318687377E-1,-5.534776701E0,9.996070096E0,1.143089268E1
5.385889167E-1,7.033278032E-1,-6.086868464E0,9.875205810E0,1.162171792E1
5.485239167E-1,7.423413031E-1,-6.935454991E0,9.621172357E0,1.188354173E1
5.584589167E-1,4.533798358E-1,-7.976448827E0,9.372812456E0,1.231579890E1
5.683949167E-1,1.056965725E-1,-8.947346241E0,9.007859076E0,1.269675949E1
5.783299167E-1,2.808256149E-1,-9.554412357E0,8.495875704E0,1.278849336E1
5.882659167E-1,4.676231415E-1,-9.812652297E0,7.877939615E0,1.259240839E1
5.982009167E-1,9.380777972E-1,-1.024079244E1,7.045151095E0,1.246547126E1
6.081359167E-1,1.637074056E0,-1.074635206E1,6.208234441E0,1.251823746E1
6.180719167E-1,1.789118766E0,-1.099238653E1,5.235975210E0,1.230645944E1
6.280069167E-1,2.015622213E0,-1.106985746E1,3.940944412E0,1.192206022E1
6.379429167E-1,2.085132889E0,-1.134322882E1,2.589606682E0,1.182043493E1
6.478779167E-1,1.319294696E0,-1.160377958E1,1.173031567E0,1.173730131E1
6.578129167E-1,5.759815127E-1,-1.192457537E1,-2.956293762E-1,1.194213755E1
6.677489167E-1,4.663799138E-1,-1.202514982E1,-1.452099874E0,1.212148227E1
6.776839167E-1,2.537182155E-1,-1.195629184E1,-2.156689945E0,1.215189693E1
6.876189167E-1,5.736896966E-1,-1.177491706E1,-2.535750025E0,1.205851648E1
6.975552083E-1,1.321477316E0,-1.177424580E1,-2.945998861E0,1.220893426E1
7.074902083E-1,1.901348469E0,-1.169383723E1,-3.298999071E0,1.229814417E1
7.174262083E-1,1.858497734E0,-1.120888904E1,-3.685398284E0,1.194467948E1
7.273612083E-1,1.565012240E0,-1.073363788E1,-3.971770349E0,1.155141572E1
7.372962083E-1,9.645350593E-1,-1.045166643E1,-3.997051955E0,1.123138831E1
7.472322083E-1,1.204934450E-1,-1.026195235E1,-4.108856565E0,1.105463192E1
7.571672083E-1,-3.689160383E-1,-9.885571754E0,-4.254149934E0,1.076839912E1
7.671022083E-1,-4.423151862E-1,-9.504860712E0,-4.244970975E0,1.041910737E1
7.770382083E-1,-2.613032967E-2,-8.934040902E0,-4.329749755E0,9.927965682E0
7.869732083E-1,2.293780109E-1,-7.939868646E0,-4.635050426E0,9.196620076E0
7.969092083E-1,1.380423097E-1,-7.392062892E0,-4.928375999E0,8.885411609E0
8.068442083E-1,-6.186514959E-2,-6.931885266E0,-5.393334893E0,8.783104343E0
8.167792083E-1,4.757177711E-2,-6.281676055E0,-5.950961630E0,8.653072371E0
8.267152083E-1,2.027890402E-1,-5.699870496E0,-6.169054588E0,8.401599941E0
8.366502083E-1,3.211229441E-1,-5.137258422E0,-6.018013991E0,7.919030019E0
8.465862083E-1,2.701521805E-1,-4.796806630E0,-5.661368920E0,7.425189162E0
8.565212083E-1,2.033053493E-1,-4.641091184E0,-5.071847960E0,6.877841389E0
8.664562083E-1,5.027336615E-1,-4.229667057E0,-4.411272805E0,6.132059386E0
8.763922083E-1,1.004561005E0,-3.374105387E0,-4.169151299E0,5.456697951E0
8.863272083E-1,1.649434047E0,-2.301450047E0,-4.620172770E0,5.418791509E0
8.962622083E-1,2.348033060E0,-1.462237192E0,-5.548985435E0,6.200212594E0
9.061982083E-1,2.700217876E0,-8.812590140E-1,-6.549702480E0,7.139075332E0
9.161332083E-1,2.791066650E0,-6.616603982E-1,-7.374753964E0,7.912954161E0
9.260692083E-1,2.876483653E0,-4.996843386E-1,-7.887189910E0,8.410208519E0
9.360042083E-1,3.064464912E0,-1.988965487E-1,-8.172702434E0,8.730611096E0
9.459392083E-1,3.532442432E0,3.126038432E-2,-8.085832690E0,8.823821000E0
9.558752083E-1,4.080794023E0,2.198348433E-1,-7.704027634E0,8.720851392E0
9.658102083E-1,4.494445939E0,3.059292465E-1,-7.422257913E0,8.682370041E0
9.757452083E-1,4.574215117E0,2.600186634E-1,-7.245972548E0,8.572932509E0
9.856812083E-1,4.092725852E0,2.273976320E-1,-7.103235582E0,8.201101774E0
9.956162083E-1,3.430162936E0,1.739675295E-1,-6.949706994E0,7.752077771E0
1.005552208E0,3.121848317E0,-1.795153677E-2,-6.800800631E0,7.483124240E0
1.015487208E0,3.173043614E0,-1.331557184E-1,-6.694437439E0,7.409549841E0
1.025422208E0,3.191679860E0,-4.017083931E-1,-6.218663535E0,7.001426006E0
1.035358208E0,3.326718966E0,-6.426347280E-1,-5.341944299E0,6.325852304E0
1.045293208E0,3.659016817E0,-7.186573023E-1,-4.441816320E0,5.799534861E0
1.055228208E0,3.794149186E0,-8.198825455E-1,-3.510596942E0,5.233743051E0
1.065164208E0,3.901449394E0,-1.032626470E0,-2.862102719E0,4.947651643E0
1.075099208E0,3.848820945E0,-1.692765423E0,-2.590051070E0,4.938344054E0
1.085035208E0,3.694234596E0,-2.673862136E0,-1.688301659E0,4.862845923E0
1.094970208E0,3.273275415E0,-3.349445924E0,1.229575896E-1,4.684894717E0
1.104905208E0,2.217994785E0,-3.245646152E0,2.683161548E0,4.759524735E0
1.114841208E0,1.079310932E0,-2.968042865E0,4.418025754E0,5.430758888E0
1.124776208E0,5.264916296E-1,-2.873023271E0,3.985158134E0,4.940945406E0
1.134712208E0,6.063239573E-1,-2.618359488E0,2.118162641E0,3.421994758E0
1.144647208E0,5.645991035E-1,-2.468612587E0,5.256465608E-1,2.586334194E0
1.154582208E0,6.992619418E-1,-2.504407780E0,-4.391960621E-2,2.600568115E0
1.164518208E0,9.917234427E-1,-2.486947409E0,3.836802578E-1,2.704742750E0
1.174453208E0,1.156454710E0,-2.535640682E0,1.684892147E0,3.256642860E0
1.184388208E0,1.380085274E0,-2.354004091E0,3.912698852E0,4.770239295E0
1.194324208E0,1.305729594E0,-2.195371031E0,6.572323603E0,7.051242534E0
1.204259208E0,1.277462546E0,-2.530570854E0,9.473952915E0,9.888957642E0
1.214195208E0,1.243057529E0,-3.204520930E0,1.262930402E1,1.308867704E1
1.224130208E0,5.265973181E-1,-3.613557054E0,1.595830750E1,1.637078732E1
1.234065208E0,-8.472061457E-1,-3.987859839E0,1.897947846E1,1.941240291E1
1.244001208E0,-1.875941294E0,-4.984654280E0,2.129801056E1,2.195384221E1
1.253936208E0,-2.669353348E0,-5.921527916E0,2.260959716E1,2.352411155E1
1.263872208E0,-3.671173178E0,-6.474541785E0,2.200302104E1,2.322778808E1
1.273807208E0,-4.254267171E0,-7.393168015E0,1.921114397E1,2.101965212E1
1.283742208E0,-3.458480709E0,-8.377586532E0,1.530872628E1,1.779050716E1
1.293678208E0,-2.138974051E0,-9.442038812E0,1.318581511E1,1.635827091E1
1.303613208E0,-1.028575666E0,-1.071741069E1,1.208367811E1,1.618444118E1
1.313548208E0,1.700851245E-1,-1.152578591E1,1.117825197E1,1.605696070E1
1.323484208E0,1.323964575E0,-1.186521912E1,1.014799713E1,1.566901888E1
1.333419208E0,2.096020405E0,-1.239824428E1,8.893006897E0,1.540114718E1
1.343355208E0,2.453933153E0,-1.299697227E1,7.692923772E0,1.530111604E1
1.353290208E0,2.233424418E0,-1.344460820E1,6.552044290E0,1.512200247E1
1.363225208E0,1.611949594E0,-1.377292819E1,5.516490703E0,1.492392717E1
1.373161208E0,9.740544726E-1,-1.412232154E1,4.436211179E0,1.483471326E1
1.383096208E0,5.354903118E-1,-1.445013516E1,2.840269216E0,1.473635930E1
1.393031208E0,1.978795718E-1,-1.468159837E1,1.279242146E0,1.473855310E1
1.402967208E0,-3.328301661E-1,-1.462698069E1,1.129880869E-1,1.463120318E1
1.412902208E0,-9.242940096E-1,-1.458378497E1,-1.061011194E0,1.465151352E1
1.422838208E0,-9.238132223E-1,-1.451620519E1,-2.462877638E0,1.475260690E1
1.432773208E0,-2.460737119E-1,-1.408744641E1,-3.969653656E0,1.463812996E1
1.442708208E0,8.509214665E-1,-1.340389170E1,-4.978058621E0,1.432373721E1
1.452644208E0,1.507989900E0,-1.268533087E1,-5.071281365E0,1.374443697E1
1.462579208E0,1.591601722E0,-1.205229728E1,-4.880452512E0,1.309999551E1
1.472515208E0,1.656155860E0,-1.162443195E1,-4.642499194E0,1.262628485E1
1.482450208E0,1.554394281E0,-1.123056818E1,-4.201739586E0,1.209117111E1
1.492385208E0,1.494838196E0,-1.060252693E1,-4.003206734E0,1.143126339E1
1.502321208E0,1.661435457E0,-9.789216072E0,-4.222821722E0,1.078987221E1
1.512256208E0,1.736541188E0,-9.042951726E0,-4.643172208E0,1.031259421E1
1.522191208E0,1.538358438E0,-8.561024796E0,-5.138478152E0,1.010255661E1
1.532127208E0,1.042042680E0,-8.182245675E0,-5.318219222E0,9.814196499E0
1.542062208E0,5.506616803E-1,-8.047529334E0,-5.181217790E0,9.587021146E0
1.551998208E0,6.076292020E-1,-7.843374385E0,-4.821312311E0,9.226743054E0
1.561933208E0,9.573918083E-1,-7.150385190E0,-4.466012099E0,8.484684526E0
1.571868208E0,1.006950031E0,-6.553942881E0,-4.276137804E0,7.890086829E0
1.581804208E0,1.036522324E0,-6.083186472E0,-4.462438281E0,7.615306402E0
1.591739208E0,1.628871436E0,-5.330820556E0,-5.189058906E0,7.615589425E0
1.601675208E0,2.177097897E0,-4.535006320E0,-6.059780653E0,7.875720864E0
1.611610208E0,2.370570276E0,-4.058047770E0,-6.559846230E0,8.069630580E0
1.621545208E0,2.271890618E0,-3.713459657E0,-6.579944279E0,7.889672764E0
1.631481208E0,2.254181741E0,-3.247022002E0,-6.602844315E0,7.695585763E0
1.641416208E0,2.527439085E0,-2.656727455E0,-6.823748614E0,7.746592428E0
1.651351208E0,2.911578642E0,-2.082791664E0,-7.267265768E0,8.101139614E0
1.661287208E0,3.131633925E0,-1.510241663E0,-7.775354894E0,8.517282704E0
1.671222208E0,3.155345846E0,-1.024888850E0,-7.923539711E0,8.590057399E0
1.681158208E0,3.242509121E0,-6.201808351E-1,-7.708081509E0,8.385285339E0
1.691093208E0,3.694743012E0,1.518603766E-1,-7.436830344E0,8.305458029E0
1.701028917E0,4.282042030E0,9.544433498E-1,-7.498037828E0,8.687198474E0
1.710964917E0,5.029711754E0,1.338341709E0,-7.753010929E0,9.338004997E0
1.720899917E0,5.546604449E0,1.294130911E0,-7.908406532E0,9.745896039E0
1.730834917E0,5.320685577E0,9.451193798E-1,-7.826895761E0,9.511216690E0
1.740770917E0,4.615024297E0,2.009015590E-1,-7.516353647E0,8.822379658E0
1.750705917E0,3.971631185E0,-8.264606631E-1,-6.960868744E0,8.056710568E0
1.760641917E0,3.756038496E0,-1.446184831E0,-5.724290807E0,6.997626812E0
1.770576917E0,3.989317843E0,-1.472915377E0,-4.416009634E0,6.130683294E0
1.780511917E0,4.497015206E0,-1.354938446E0,-3.294318960E0,5.736858144E0
1.790447917E0,5.040499867E0,-1.172623431E0,-2.033047062E0,5.560122748E0
1.800382917E0,5.455590198E0,-1.186364388E0,-8.686103171E-1,5.650257406E0
1.810317917E0,5.388067721E0,-1.199526470E0,3.244830465E-1,5.529505111E0
1.820253917E0,4.689723061E0,-1.246206547E0,1.016488740E0,4.957800168E0
1.830188917E0,4.101785235E0,-1.475134395E0,1.241918784E0,4.532441491E0
1.840124917E0,3.084129683E0,-1.863098908E0,1.465237398E0,3.889719023E0
1.850059917E0,1.986570468E0,-2.319349544E0,1.643977425E0,3.468213705E0
1.859994917E0,1.042486922E0,-2.542490111E0,1.671676855E0,3.216448112E0
1.869930917E0,-2.361938909E-1,-2.619785039E0,1.257221532E0,2.915418870E0
1.879865917E0,-1.634220761E0,-2.766753635E0,1.911963505E-1,3.219030789E0
1.889801917E0,-1.966627516E0,-2.818166156E0,-7.900868887E-1,3.526176620E0
1.899736917E0,-1.491117906E0,-2.670528054E0,-1.173464261E0,3.275999247E0
1.909671917E0,-9.876170893E-1,-2.441444669E0,-8.682735175E-1,2.773073834E0
1.919607917E0,-2.251990789E-1,-2.071142841E0,1.513639480E-1,2.088841386E0
1.929542917E0,5.461796433E-1,-1.747190429E0,1.796285114E0,2.564688443E0
1.939477917E0,9.033962801E-1,-2.098976903E0,3.631477016E0,4.290623987E0
1.949413917E0,7.269955780E-1,-2.475112937E0,5.915321097E0,6.453350316E0
1.959348917E0,-1.823128219E-1,-2.705392662E0,8.502830383E0,8.924713549E0
1.969284917E0,-9.832103352E-1,-3.109355741E0,1.107140346E1,1.154169703E1
1.979219917E0,-1.824039508E0,-3.097436777E0,1.341128843E1,1.388466391E1
1.989154917E0,-2.572987433E0,-2.988394683E0,1.475451314E1,1.527240732E1
1.999090917E0,-3.290077974E0,-2.409222272E0,1.480274800E1,1.535416273E1
2.009025917E0,-3.357118056E0,-1.893558809E0,1.395092094E1,1.447356216E1
2.018960917E0,-2.549018527E0,-2.152106605E0,1.302113764E1,1.344169200E1
2.028896917E0,-1.807473176E0,-2.694141742E0,1.211171200E1,1.253869717E1
2.038831917E0,-9.853698581E-1,-3.161743285E0,1.153170095E1,1.199782069E1
2.048767917E0,-3.657823692E-1,-3.807416226E0,1.092245149E1,1.157281995E1
2.058702917E0,3.836606696E-2,-4.320584244E0,9.941365886E0,1.083972674E1
2.068637917E0,7.188555229E-1,-4.593410064E0,9.364727511E0,1.045534747E1
2.078573917E0,1.689636724E0,-4.984471847E0,9.365324512E0,1.074286438E1
2.088508917E0,2.173259931E0,-5.505138334E0,9.555882931E0,1.124030718E1
2.098444917E0,2.408367263E0,-6.400141228E0,9.688806515E0,1.185896337E1
2.108379917E0,2.491859363E0,-7.464723317E0,9.823019410E0,1.258662654E1
2.118314917E0,2.682939061E0,-8.455464427E0,9.810546130E0,1.322648313E1
2.128250917E0,2.843667033E0,-9.429134007E0,9.435630848E0,1.363914000E1
2.138185917E0,2.884311906E0,-1.033077992E1,8.159205891E0,1.347653182E1
2.148120917E0,2.968832823E0,-1.079487694E1,7.278993528E0,1.335391640E1
2.158056917E0,2.941214085E0,-1.174273632E1,6.663700381E0,1.381837543E1
2.167991917E0,2.883398571E0,-1.277123817E1,5.844661004E0,1.433801150E1
2.177927917E0,2.589164633E0,-1.354452893E1,4.897862889E0,1.463376569E1
2.187862917E0,2.407266671E0,-1.402304284E1,3.780834199E0,1.472193501E1
2.197797917E0,2.151510043E0,-1.412297643E1,2.538151184E0,1.450964059E1
2.207733917E0,1.972915758E0,-1.432733311E1,1.101040063E0,1.450438416E1
2.217668917E0,1.384336638E0,-1.466286973E1,-4.000214714E-1,1.473350447E1
2.227604917E0,9.567970003E-1,-1.468440503E1,-1.780723334E0,1.482289402E1
2.237539917E0,7.630044130E-1,-1.442960910E1,-2.753103603E0,1.470970339E1
2.247474917E0,4.702842459E-1,-1.432177124E1,-3.369249859E0,1.472026302E1
2.257410917E0,1.555865879E-1,-1.409200490E1,-3.763893061E0,1.458683311E1
2.267345917E0,4.255806743E-1,-1.368369968E1,-4.019619868E0,1.426821992E1
2.277280917E0,1.168511888E0,-1.300447892E1,-4.200444428E0,1.371588952E1
2.287216917E0,2.357915732E0,-1.247192388E1,-4.327434842E0,1.341027010E1
2.297151917E0,3.325846562E0,-1.164246593E1,-4.275752472E0,1.284096287E1
2.307087917E0,3.052354159E0,-1.062362369E1,-4.264098387E0,1.184739554E1
2.317022917E0,2.009340403E0,-9.981811076E0,-4.809905562E0,1.126095878E1
2.326957917E0,1.185355889E0,-9.453281254E0,-5.570698485E0,1.103640687E1
2.336893917E0,7.219997169E-1,-8.869091200E0,-6.289481503E0,1.089677199E1
2.346828917E0,6.046007098E-1,-8.404821108E0,-6.568210087E0,1.068400410E1
2.356764917E0,7.008436867E-1,-7.857270877E0,-6.085820643E0,9.963187262E0
2.366699917E0,6.715870701E-1,-7.299778626E0,-4.982794865E0,8.863748747E0
2.376634917E0,5.661386754E-1,-6.658799245E0,-3.857005877E0,7.715997325E0
2.386570917E0,8.162547867E-1,-5.776315239E0,-3.556979395E0,6.832583116E0
2.396505917E0,1.197103530E0,-5.442407650E0,-3.760381808E0,6.722598399E0
2.406440917E0,1.168615896E0,-5.058067827E0,-3.989686217E0,6.547313141E0
2.416376917E0,1.661845054E0,-4.099702165E0,-4.368866166E0,6.217417341E0
2.426311917E0,2.334255266E0,-3.118587325E0,-5.255637642E0,6.541869884E0
2.436247917E0,2.745145250E0,-2.475901142E0,-6.424506576E0,7.412165247E0
2.446182917E0,2.722611250E0,-2.163830565E0,-7.500172062E0,8.267245956E0
2.456117917E0,2.265753673E0,-2.186214876E0,-8.282866316E0,8.861097539E0
2.466053917E0,1.882657552E0,-2.270448110E0,-8.501811798E0,8.998896484E0
2.475988917E0,2.069867856E0,-1.753136171E0,-8.733529937E0,9.145074332E0
2.485923917E0,2.574391350E0,-9.815796930E-1,-9.380616735E0,9.776858383E0
2.495859917E0,3.280516315E0,-4.680824769E-1,-1.003378932E1,1.056682623E1
2.505794917E0,3.853886973E0,6.424979031E-2,-1.019161970E1,1.089613165E1
2.515730917E0,4.144799400E0,5.614502317E-1,-1.001341177E1,1.085186637E1
2.525665917E0,4.123048927E0,7.306704068E-1,-9.709130852E0,1.057358187E1
2.535600917E0,3.899069285E0,5.522069532E-1,-9.400711277E0,1.019220517E1
2.545536917E0,3.519753097E0,2.701530576E-1,-9.108653964E0,9.768788133E0
2.555471917E0,3.154902627E0,-8.678378999E-2,-8.594733995E0,9.155893973E0
2.565406917E0,3.166493271E0,-5.331684190E-1,-7.957821937E0,8.581251550E0
2.575342917E0,3.411928394E0,-9.723744214E-1,-7.357805225E0,8.168479975E0
2.585277917E0,3.954329566E0,-1.511432156E0,-6.351636820E0,7.633114684E0
2.595213917E0,4.480337192E0,-1.778813633E0,-4.875810699E0,6.856466238E0
2.605148917E0,4.872183087E0,-1.930418487E0,-3.407878904E0,6.251265647E0
2.615083917E0,5.025711089E0,-2.240350737E0,-1.787551128E0,5.785523521E0
2.625019917E0,5.036073525E0,-2.509776401E0,-2.978022015E-1,5.634687239E0
2.634954917E0,5.037961006E0,-2.484908193E0,1.156240118E0,5.735216738E0
2.644890917E0,4.735994125E0,-2.155046877E0,2.428048698E0,5.741888877E0
2.654825917E0,4.162350110E0,-2.021387714E0,2.825429567E0,5.421643567E0
2.664760917E0,3.401594609E0,-2.212944837E0,1.910413992E0,4.485270601E0
2.674696917E0,2.281212249E0,-2.579292778E0,3.450336707E-1,3.460596596E0
2.684631917E0,1.148427360E0,-2.972082413E0,-7.638363987E-1,3.276523358E0
2.694566208E0,7.647392088E-1,-3.301996354E0,-3.253145206E-1,3.404972175E0
2.704502208E0,1.170252531E0,-3.273732668E0,1.359242581E0,3.732875160E0
2.714437208E0,1.700594552E0,-3.022183111E0,2.687562162E0,4.387322984E0
2.724373208E0,2.097547405E0,-2.759761535E0,3.380058437E0,4.841568329E0
2.734308208E0,2.134143081E0,-2.852811786E0,4.451091174E0,5.701343211E0
2.744243208E0,1.965464212E0,-3.266664261E0,6.457691279E0,7.499061382E0
2.754179208E0,2.138544134E0,-3.612513911E0,8.763369448E0,9.717009409E0
2.764114208E0,2.111276083E0,-3.611668988E0,1.107290970E1,1.183684793E1
2.774049208E0,1.292264188E0,-3.306021577E0,1.347816654E1,1.393774367E1
2.783985208E0,-1.046373859E-2,-3.457046387E0,1.534218638E1,1.572685481E1
2.793920208E0,-1.231146751E0,-3.893365034E0,1.648036328E1,1.697870394E1
2.803856208E0,-2.400195194E0,-4.083262425E0,1.695231662E1,1.760156265E1
2.813791208E0,-3.289188613E0,-4.561378140E0,1.662061460E1,1.754621788E1
2.823726208E0,-3.321641244E0,-4.943303940E0,1.551048796E1,1.661459573E1
2.833662208E0,-2.706970240E0,-5.022569965E0,1.389564137E1,1.502140958E1
2.843597208E0,-1.784085191E0,-5.346037350E0,1.232680417E1,1.355408338E1
2.853533208E0,-7.667924586E-1,-5.528465216E0,1.112392081E1,1.244562222E1
2.863468208E0,1.336302200E-1,-5.831484303E0,1.016316013E1,1.171810096E1
2.873403208E0,6.087271629E-1,-6.063910541E0,9.081946222E0,1.093724403E1
2.883339208E0,6.099209451E-1,-5.902222749E0,8.572430375E0,1.042567981E1
2.893274208E0,6.229694454E-1,-6.594977471E0,8.355277650E0,1.066266774E1
2.903209208E0,7.870262367E-1,-7.330220985E0,7.957147168E0,1.084747625E1
2.913145208E0,6.828192790E-1,-8.166947020E0,7.157833958E0,1.088116964E1
2.923080208E0,3.838832293E-1,-9.051207994E0,5.941424822E0,1.083384795E1
2.933016208E0,2.669433565E-1,-9.609290814E0,4.671767431E0,1.068808400E1
2.942951208E0,3.928495690E-1,-1.008844909E1,3.923803300E0,1.083177585E1
2.952886208E0,4.557659018E-1,-1.064396732E1,3.674699049E0,1.126965731E1
2.962822208E0,2.489522231E-1,-1.112868863E1,3.191887436E0,1.158006189E1
2.972757208E0,-2.451123565E-1,-1.134052624E1,2.019444684E0,1.152153515E1
2.982693208E0,-4.003482576E-1,-1.126582572E1,5.506556869E-1,1.128637805E1
2.992628208E0,-1.493545523E-1,-1.122749488E1,-6.184295940E-1,1.124550591E1
3.002563208E0,7.811797520E-1,-1.125826527E1,-1.116113308E0,1.134039186E1
3.012499208E0,1.636482172E0,-1.121061631E1,-8.958130261E-1,1.136479093E1
3.022434208E0,1.620305557E0,-1.109239263E1,-7.690991852E-1,1.123646198E1
3.032369208E0,1.290136386E0,-1.111561543E1,-1.079249244E0,1.124215892E1
3.042305208E0,1.040452384E0,-1.135449641E1,-1.456022332E0,1.149465662E1
3.052240208E0,1.533511681E0,-1.137505522E1,-1.451032172E0,1.156931431E1
3.062176208E0,2.201364280E0,-1.086994115E1,-1.068030192E0,1.114191697E1
3.072111208E0,1.896524516E0,-1.058249554E1,-8.997794849E-1,1.078868019E1
3.082046208E0,9.819632703E-1,-1.040597629E1,-1.269975479E0,1.052907556E1
3.091982208E0,3.305637854E-1,-1.027337313E1,-1.636399580E0,1.040813487E1
3.101917208E0,5.082377918E-2,-1.034164639E1,-1.360156939E0,1.043083218E1
3.111852208E0,2.171321871E-1,-9.725631110E0,-8.187597339E-1,9.762449200E0
3.121788208E0,3.837192880E-1,-8.723199077E0,-9.435353690E-1,8.782465577E0
3.131723208E0,3.766435723E-1,-7.857093122E0,-1.951918406E0,8.104675081E0
3.141659208E0,6.475332329E-1,-7.306659629E0,-3.619301066E0,8.179603562E0
3.151594208E0,1.054076689E0,-6.910513108E0,-5.152110350E0,8.683922509E0
3.161529208E0,1.371632539E0,-6.321830054E0,-6.290588965E0,9.023215645E0
3.171465208E0,1.574132142E0,-5.526173692E0,-6.682747686E0,8.813376442E0
3.181400208E0,1.865650633E0,-4.801644031E0,-6.483499135E0,8.280833214E0
3.191336208E0,2.707232780E0,-3.694712899E0,-6.127537603E0,7.650276453E0
3.201271208E0,3.932265098E0,-2.321360402E0,-6.628040552E0,8.048748006E0
3.211206208E0,5.007975315E0,-1.425912534E0,-7.731954521E0,9.321811199E0
3.221142208E0,5.441613598E0,-9.998428863E-1,-8.483960833E0,1.012859496E1
3.231077208E0,5.619737914E0,-7.279514515E-1,-8.928928097E0,1.057530730E1
3.241012208E0,5.872498428E0,-5.931830710E-1,-9.476268997E0,1.116412908E1
3.250948208E0,6.210755176E0,-3.635021013E-1,-1.041151945E1,1.212869947E1
3.260883208E0,6.494862614E0,-7.111325204E-2,-1.149696499E1,1.320486658E1
3.270819208E0,6.588279485E0,-1.299444276E-1,-1.194185974E1,1.363929347E1
3.280754208E0,6.144101011E0,-5.950424856E-1,-1.168435889E1,1.321469998E1
3.290689208E0,5.470529249E0,-1.191410535E0,-1.077063906E1,1.213889678E1
3.300625208E0,4.927965524E0,-1.790755402E0,-9.426302201E0,1.078641842E1
3.310560208E0,4.576489391E0,-2.421393397E0,-7.658501798E0,9.244460553E0
3.320495208E0,4.324044334E0,-2.963987528E0,-5.797803172E0,7.816463592E0
3.330431208E0,4.092022431E0,-3.284279875E0,-4.318871887E0,6.795866115E0
3.340366208E0,3.825435006E0,-3.345752823E0,-3.108852296E0,5.957598302E0
3.350302208E0,3.424206377E0,-3.119097787E0,-2.358185727E0,5.197595621E0
3.360237208E0,3.182469033E0,-2.797129043E0,-2.552773901E0,4.946584137E0
3.370172208E0,2.868278548E0,-2.948750269E0,-3.284264672E0,5.263890616E0
3.380108208E0,2.693678935E0,-3.308852799E0,-3.870752097E0,5.760827618E0
3.390043208E0,2.359946470E0,-4.119536505E0,-4.385010620E0,6.462835794E0
3.399979208E0,2.272290275E0,-5.243099458E0,-4.895505291E0,7.524584180E0
3.409914208E0,2.257202412E0,-6.456410739E0,-5.054303389E0,8.504480296E0
3.419849208E0,1.343985149E0,-6.896185091E0,-4.718774368E0,8.463480160E0
3.429785208E0,-1.830701825E-1,-6.712701802E0,-3.378220072E0,7.517063990E0
3.439720208E0,-2.802408202E-1,-6.838177788E0,-1.883790450E0,7.098441860E0
3.449655208E0,2.599654537E-1,-7.000767220E0,-1.247625082E0,7.115819844E0
3.459591208E0,5.195132701E-1,-6.810505255E0,-9.367882669E-1,6.894232961E0
3.469526208E0,5.592988949E-1,-5.715218267E0,-1.499038982E-1,5.744476153E0
3.479462208E0,6.971562863E-1,-5.197101166E0,4.530574715E-1,5.263188054E0
3.489397208E0,7.348479500E-1,-5.458532517E0,9.554315293E-1,5.590029352E0
3.499332208E0,7.059539339E-1,-5.356587481E0,1.375114263E0,5.575153777E0
3.509268208E0,8.592828387E-1,-4.776318571E0,1.677303046E0,5.134679308E0
3.519203208E0,7.831098448E-1,-4.276137219E0,2.172031869E0,4.859663876E0
3.529139208E0,4.545721562E-1,-4.013439069E0,2.522739678E0,4.762199543E0
3.539074208E0,3.182335424E-1,-3.540921187E0,2.466441516E0,4.326976911E0
3.549009208E0,2.298847635E-1,-2.953696136E0,2.212577047E0,3.697656698E0
3.558945208E0,2.473865214E-1,-2.383670670E0,2.004406815E0,3.124217123E0
3.568880208E0,2.958829626E-1,-2.094119475E0,3.217335688E0,3.850211946E0
3.578815208E0,3.776524363E-1,-2.708815622E0,5.737019611E0,6.355603626E0
3.588751208E0,2.132004828E-1,-3.480442266E0,8.208572178E0,8.918497072E0
3.598686208E0,-7.850732667E-1,-3.770713254E0,1.038890476E1,1.107988991E1
3.608622208E0,-2.552339453E0,-3.904641974E0,1.258674916E1,1.342337215E1
3.618557208E0,-4.459327269E0,-4.130277255E0,1.511849062E1,1.629458648E1
3.628492208E0,-6.051005151E0,-4.199163595E0,1.806025990E1,1.950437453E1
3.638428208E0,-7.069325239E0,-4.154568051E0,1.953431022E1,2.118549199E1
3.648363208E0,-7.013117709E0,-3.372896767E0,1.861962560E1,2.018045367E1
3.658299208E0,-5.725238641E0,-3.368672739E0,1.763792019E1,1.884734841E1
3.668234208E0,-3.950972972E0,-4.318498542E0,1.638263409E1,1.739684790E1
3.678169208E0,-2.277673368E0,-5.064658223E0,1.492984892E1,1.592918541E1
3.688105208E0,-1.021763148E0,-5.462196967E0,1.353666209E1,1.463286766E1
3.698039542E0,-3.207450677E-1,-5.701027075E0,1.221664613E1,1.348521523E1
3.707974542E0,3.486247016E-1,-6.104648677E0,1.108992744E1,1.266391587E1
3.717910542E0,6.536535135E-1,-6.515843593E0,1.019002458E1,1.211280651E1
3.727845542E0,2.900080823E-1,-6.992568254E0,9.192455674E0,1.155341321E1
3.737781542E0,2.191976430E-1,-7.596157615E0,8.132341443E0,1.113034750E1
3.747716542E0,4.686162546E-1,-8.283926416E0,7.442573479E0,1.114607276E1
3.757651542E0,5.662931880E-1,-9.278686318E0,6.829720375E0,1.153515445E1
3.767587542E0,6.552120888E-1,-1.039830240E1,6.220129432E0,1.213441411E1
3.777522542E0,6.441949113E-1,-1.111844197E1,5.214339927E0,1.229732003E1
3.787457542E0,4.987017505E-1,-1.162733918E1,3.669928306E0,1.220295430E1
3.797393542E0,-4.511506945E-2,-1.225787134E1,1.948812073E0,1.241190210E1
3.807328542E0,-4.218184661E-1,-1.269211131E1,2.573675358E-1,1.270172659E1
3.817264542E0,1.274653909E-1,-1.242575192E1,-1.250168328E0,1.248913444E1
3.827199542E0,1.082458342E0,-1.201562822E1,-2.022756254E0,1.223268492E1
3.837134542E0,1.454597805E0,-1.174823504E1,-2.273112102E0,1.205420757E1
3.847070542E0,1.308732871E0,-1.157667306E1,-2.570185448E0,1.193054878E1
3.857005542E0,1.370195732E0,-1.140127530E1,-2.882049326E0,1.183945620E1
3.866941542E0,1.659154750E0,-1.088642329E1,-3.010170007E0,1.141613463E1
3.876876542E0,2.159058360E0,-1.028199777E1,-3.315119845E0,1.101685213E1
3.886811542E0,2.132978170E0,-9.895400923E0,-3.115920410E0,1.059138873E1
3.896747542E0,9.616392258E-1,-9.599468077E0,-2.933227665E0,1.008356891E1
3.906682542E0,1.284399025E-1,-9.561654718E0,-3.053247614E0,1.003813024E1
3.916617542E0,-1.999134526E-1,-9.473540102E0,-2.964711413E0,9.928617286E0
3.926553542E0,-2.459200032E-1,-9.118604756E0,-2.688334579E0,9.509814517E0
3.936488542E0,2.791219555E-2,-8.560461125E0,-2.017914175E0,8.795126570E0
3.946424542E0,4.518824735E-1,-8.015615231E0,-1.083118639E0,8.101075934E0
3.956359542E0,2.955796748E-1,-7.486632249E0,-3.432403296E-1,7.500322907E0
3.966294542E0,2.246579191E-1,-7.094715019E0,-2.668973279E-1,7.103287025E0
3.976230542E0,5.541320027E-1,-6.149475771E0,-9.828043923E-1,6.252121161E0
3.986165542E0,7.525952728E-1,-5.450350508E0,-2.379987509E0,5.994752776E0
3.996100542E0,3.887594417E-1,-5.308085997E0,-3.719008957E0,6.492914483E0
4.006036542E0,8.503021002E-3,-5.231464083E0,-4.376207930E0,6.820519379E0
4.015971542E0,2.711570245E-1,-5.002981793E0,-4.578283317E0,6.787048776E0
4.025907542E0,6.775043061E-1,-4.624465211E0,-4.625291130E0,6.575561467E0
4.035842542E0,1.276105407E0,-3.958427002E0,-4.716643642E0,6.288427195E0
4.045777542E0,2.109964260E0,-2.920642703E0,-5.256644533E0,6.372943960E0
4.055713542E0,2.701503679E0,-2.095831540E0,-6.472584722E0,7.320176566E0
4.065648542E0,2.974753129E0,-1.684851217E0,-8.107483760E0,8.798816552E0
4.075584542E0,3.288214467E0,-1.558861846E0,-9.820185850E0,1.047274819E1
4.085519542E0,3.436837532E0,-1.646691118E0,-1.100269634E1,1.164400148E1
4.095454542E0,3.365117339E0,-2.056077490E0,-1.150872607E1,1.216561734E1
4.105390542E0,3.189497971E0,-2.407009832E0,-1.173053084E1,1.239241492E1
4.115325542E0,2.909549950E0,-2.291384066E0,-1.185041163E1,1.241564246E1
4.125260542E0,2.444348397E0,-1.931026597E0,-1.173575592E1,1.214214436E1
4.135196542E0,1.898166707E0,-1.544479449E0,-1.116980508E1,1.143472777E1
4.145131542E0,1.431517675E0,-1.194428868E0,-1.031846452E1,1.048554306E1
4.155067542E0,1.188786597E0,-9.668394470E-1,-9.228754020E0,9.355099831E0
4.165002542E0,1.397748250E0,-7.200290591E-1,-7.997637967E0,8.150727272E0
4.174937542E0,1.973535855E0,-4.217649275E-1,-7.067080493E0,7.349582037E0
4.184873542E0,2.571548726E0,-9.503187239E-2,-6.382794878E0,6.882002933E0
4.194808542E0,3.031216767E0,2.961942172E-1,-6.219033079E0,6.924765595E0
4.204743542E0,3.193182009E0,1.595804554E-1,-6.402549112E0,7.156431541E0
4.214679542E0,3.042728473E0,-8.360495120E-1,-6.521568602E0,7.244862481E0
4.224614542E0,2.844700236E0,-2.152377039E0,-6.432423706E0,7.355346428E0
4.234550542E0,2.708612139E0,-3.451854059E0,-5.853521290E0,7.315434892E0
4.244485542E0,2.793262864E0,-4.641839043E0,-4.500080608E0,7.042706341E0
4.254420542E0,3.567182786E0,-5.255476259E0,-2.115128813E0,6.694669046E0
4.264356542E0,4.218540098E0,-5.214877871E0,5.302567980E-1,6.728462235E0
4.274291542E0,4.450433362E0,-5.018941183E0,2.206676622E0,7.061554321E0
4.284227542E0,4.100709640E0,-4.719243899E0,2.784169275E0,6.843879096E0
4.294162542E0,3.005921712E0,-4.740875089E0,2.157533113E0,6.013851601E0
4.304097542E0,1.433601038E0,-5.266248584E0,4.524101847E-1,5.476610363E0
4.314033542E0,-7.507795662E-2,-5.855677743E0,-1.336244897E0,6.006675366E0
4.323968542E0,-5.246349925E-1,-6.325818440E0,-2.056913057E0,6.672489201E0
4.333903542E0,3.722023197E-1,-6.203187709E0,-1.073587970E0,6.306398612E0
4.343839542E0,1.204567940E0,-5.579896740E0,1.601940038E0,5.928949607E0
4.353774542E0,1.514868272E0,-5.376427084E0,4.806318880E0,7.368954828E0
4.363710542E0,1.483127393E0,-5.383615651E0,6.721373223E0,8.738411889E0
4.373645542E0,8.989502035E-1,-5.431387988E0,7.020421466E0,8.921569621E0
4.383580542E0,-1.971476465E-2,-5.191857968E0,6.562589743E0,8.367996294E0
4.393516542E0,-5.480054364E-1,-4.991016051E0,6.333823863E0,8.082566170E0
4.403451542E0,-8.935438679E-1,-4.624078418E0,6.965654690E0,8.408380767E0
4.413387542E0,-1.207157964E0,-3.920311342E0,8.864922135E0,9.767953513E0
4.423322542E0,-1.337375018E0,-3.411274382E0,1.157094045E1,1.213721664E1
4.433257542E0,-1.329550274E0,-3.112495696E0,1.408182373E1,1.448285514E1
4.443193542E0,-1.568901807E0,-2.825536279E0,1.588779125E1,1.621317424E1
4.453128542E0,-1.677362834E0,-2.302628846E0,1.732004684E1,1.755276811E1
4.463063542E0,-1.473607980E0,-3.124695911E0,1.801190343E1,1.834022656E1
4.472999542E0,-1.351400588E0,-4.541776811E0,1.789162971E1,1.850849626E1
4.482934542E0,-1.369556485E0,-5.599141681E0,1.720815569E1,1.814791158E1
4.492870542E0,-1.183438441E0,-6.299618236E0,1.599567588E1,1.723216073E1
4.502805542E0,-8.419828279E-1,-6.724278120E0,1.439506258E1,1.591045813E1
4.512740542E0,-4.232854959E-1,-7.129554484E0,1.260992167E1,1.449206136E1
4.522676542E0,1.789687993E-1,-7.651584542E0,1.101795874E1,1.341544597E1
4.532611542E0,9.291140887E-1,-8.043929788E0,9.912665412E0,1.279957011E1
4.542546542E0,1.665004159E0,-8.418495991E0,9.210917673E0,1.258905548E1
4.552482542E0,2.311467497E0,-9.131754559E0,8.423460862E0,1.263671303E1
4.562417542E0,2.821464863E0,-9.939017644E0,7.414026203E0,1.271662378E1
4.572353542E0,3.140756166E0,-1.062104039E1,6.264120959E0,1.272438838E1
4.582288542E0,3.025368382E0,-1.134847494E1,4.832857638E0,1.270028544E1
4.592223542E0,2.554097711E0,-1.210869835E1,2.843971088E0,1.269772272E1
4.602159542E0,1.919388299E0,-1.232613642E1,9.194992197E-1,1.250852386E1
4.612094542E0,1.451256413E0,-1.213844079E1,-3.005837220E-1,1.222858294E1
4.622030542E0,1.393339450E0,-1.187828531E1,-1.092379167E0,1.200951077E1
4.631965542E0,1.343187881E0,-1.189915753E1,-1.816281422E0,1.211168782E1
4.641900542E0,1.075847846E0,-1.209369322E1,-2.292050941E0,1.235590393E1
4.651836542E0,1.113238670E0,-1.212433497E1,-2.409821173E0,1.241152839E1
4.661771542E0,1.787719381E0,-1.208272969E1,-2.284279699E0,1.242603039E1
4.671706542E0,2.541848963E0,-1.160949933E1,-2.429529359E0,1.213029611E1
4.681642542E0,2.469511889E0,-1.119664146E1,-2.988117233E0,1.184871781E1
4.691577542E0,2.138461104E0,-1.113405521E1,-3.636565263E0,1.190650277E1
4.701514458E0,1.597855757E0,-1.085361807E1,-4.204044558E0,1.174853858E1
4.711449458E0,1.346349471E0,-1.016786597E1,-4.984167792E0,1.140351191E1
4.721384458E0,1.175407290E0,-9.643568947E0,-5.233878983E0,1.103510279E1
4.731320458E0,6.371566909E-1,-9.280546317E0,-5.215878915E0,1.066489107E1
4.741255458E0,2.194740335E-1,-8.968786227E0,-5.401070759E0,1.047181267E1
4.751191458E0,-2.746266892E-1,-8.604787112E0,-5.060963953E0,9.986547812E0
4.761126458E0,-4.130561576E-1,-8.356047728E0,-4.217461579E0,9.369158511E0
4.771061458E0,1.011960802E-1,-7.470141347E0,-3.392415358E0,8.204982288E0
4.780997458E0,6.143707493E-1,-6.341878987E0,-3.180712237E0,7.121362990E0
4.790932458E0,8.353757666E-1,-5.802492054E0,-3.398163463E0,6.776007795E0
4.800867458E0,9.624005333E-1,-5.425215667E0,-3.951665575E0,6.780474956E0
4.810803458E0,8.824139853E-1,-5.030526856E0,-4.729429456E0,6.960772793E0
4.820738458E0,1.170407775E0,-4.338921112E0,-5.308143885E0,6.955032874E0
4.830674458E0,1.587648273E0,-3.646920097E0,-5.875982784E0,7.095620263E0
4.840609458E0,1.893718438E0,-3.006603790E0,-6.652695336E0,7.542160904E0
4.850544458E0,2.273669926E0,-2.189969957E0,-7.404427414E0,8.049291191E0
4.860480458E0,2.451370318E0,-1.770688927E0,-7.845993937E0,8.408577560E0
4.870415458E0,2.351306624E0,-1.669033914E0,-7.785504491E0,8.302312764E0
4.880350458E0,2.399679177E0,-1.353903489E0,-7.547278401E0,8.034483559E0
4.890286458E0,2.483931123E0,-1.173926775E0,-7.679548266E0,8.156192707E0
4.900221458E0,2.375600051E0,-1.199269778E0,-7.930762192E0,8.365328000E0
4.910157458E0,2.282119737E0,-1.144065045E0,-7.903356292E0,8.305419677E0
4.920092458E0,2.118959616E0,-1.006912170E0,-7.764406568E0,8.111095569E0
4.930027458E0,1.576365193E0,-8.094400030E-1,-7.958121314E0,8.153024910E0
4.939963458E0,1.225478460E0,-6.503963220E-1,-8.117666101E0,8.235369801E0
4.949898458E0,1.359466822E0,-4.630936325E-1,-7.822250733E0,7.953000207E0
4.959834458E0,1.510008651E0,-2.378085995E-1,-7.346240602E0,7.503594474E0
4.969769458E0,1.613387716E0,-1.489566493E-1,-7.027139332E0,7.211511298E0
4.979704458E0,1.747098920E0,-2.052185583E-1,-6.818883730E0,7.042133528E0
4.989640458E0,1.839847455E0,-4.473909348E-1,-6.603957624E0,6.870040292E0
4.999575458E0,1.759190378E0,-7.460544312E-1,-6.344492692E0,6.626004492E0
5.009510458E0,1.337610222E0,-1.073375716E0,-5.988045257E0,6.228805867E0
5.019446458E0,7.355464000E-1,-1.434568752E0,-5.609840916E0,5.836893962E0
5.029381458E0,3.383663830E-1,-1.697558386E0,-5.073852385E0,5.360986319E0
5.039317458E0,6.712203035E-1,-1.614300467E0,-4.161805442E0,4.514103148E0
5.049252458E0,1.573704418E0,-8.998537445E-1,-2.806944180E0,3.341439508E0
5.059187458E0,2.339548166E0,-1.351981509E-1,-1.336459490E0,2.697756128E0
5.069123458E0,2.680731737E0,1.678770697E-1,-3.498231250E-1,2.708667860E0
5.079058458E0,2.782983752E0,1.521679401E-2,-2.110903323E-1,2.791019391E0
5.088993458E0,2.624832940E0,-6.518552023E-1,-8.847696823E-1,2.845607239E0
5.098929458E0,2.013058940E0,-1.456435000E0,-2.047308421E0,3.219484582E0
5.108864458E0,1.048927923E0,-2.248257342E0,-3.366445534E0,4.181849638E0
5.118800458E0,5.695500872E-1,-3.445978192E0,-4.078161607E0,5.369409194E0
5.128735458E0,1.089261432E0,-4.402790834E0,-3.076994326E0,5.480780207E0
5.138670458E0,1.954893177E0,-4.559121114E0,-6.216923404E-1,4.999369364E0
5.148606458E0,2.998541064E0,-4.365920631E0,2.092165335E0,5.694705195E0
5.158541458E0,3.797384158E0,-3.837439340E0,4.820321792E0,7.237511265E0
5.168477458E0,4.036210466E0,-3.727775687E0,7.642570474E0,9.412554911E0
5.178412458E0,3.517262183E0,-3.803930409E0,9.793064709E0,1.107904040E1
5.188347458E0,2.077003798E0,-3.422990448E0,1.154401753E1,1.221863941E1
5.198283458E0,2.782149062E-1,-3.292093509E0,1.255448656E1,1.298192651E1
5.208218458E0,-1.127366274E0,-3.725826810E0,1.268416377E1,1.326803492E1
5.218153458E0,-2.153431292E0,-3.831087509E0,1.248826801E1,1.323900811E1
5.228089458E0,-2.438684199E0,-3.435388007E0,1.199433500E1,1.271271581E1
5.238024458E0,-1.579356629E0,-2.934845005E0,1.144104806E1,1.191659613E1
5.247960458E0,-5.341744325E-1,-2.391545408E0,1.138971185E1,1.165033767E1
5.257895458E0,4.813071245E-1,-2.294835239E0,1.193958284E1,1.216764413E1
5.267830458E0,1.607565644E0,-2.312062744E0,1.364699554E1,1.393450353E1
5.277766458E0,2.442032315E0,-2.970998340E0,1.494676726E1,1.543360633E1
5.287701458E0,2.703745209E0,-3.912522851E0,1.514649645E1,1.587559221E1
5.297637458E0,2.427882930E0,-4.580167875E0,1.464891009E1,1.553908363E1
5.307572458E0,1.958466411E0,-5.199085711E0,1.370391116E1,1.478726696E1
5.317507458E0,1.667137369E0,-5.733759788E0,1.266089887E1,1.399834663E1
5.327443458E0,1.500282393E0,-6.275173366E0,1.162093648E1,1.329190779E1
5.337378458E0,1.433510845E0,-7.019522749E0,1.046486126E1,1.268234892E1
5.347313458E0,1.391964477E0,-7.806246319E0,9.318324008E0,1.223544887E1
5.357249458E0,1.320136695E0,-8.632814571E0,8.156335493E0,1.194964673E1
5.367184458E0,1.355653853E0,-9.431760576E0,7.042802854E0,1.184892303E1
5.377120458E0,1.673395644E0,-1.029977448E1,6.038731261E0,1.205619685E1
5.387055458E0,2.154817666E0,-1.124018685E1,5.110072963E0,1.253386952E1
5.396990458E0,2.456403894E0,-1.207203397E1,4.053339592E0,1.296909735E1
5.406926458E0,2.536192367E0,-1.257030679E1,2.803952744E0,1.312657745E1
5.416861458E0,1.973883618E0,-1.297858862E1,1.287796623E0,1.319084528E1
5.426797458E0,1.037202355E0,-1.317890604E1,-3.220441729E-1,1.322357991E1
5.436732458E0,7.172527280E-1,-1.279439782E1,-1.292953282E0,1.287954950E1
5.446667458E0,6.869022435E-1,-1.240036214E1,-1.731504981E0,1.253949463E1
5.456603458E0,4.301289675E-1,-1.244775616E1,-2.268201025E0,1.266003082E1
5.466538458E0,1.782158606E-1,-1.221797930E1,-2.935612160E0,1.256696454E1
5.476473458E0,-2.124503215E-1,-1.178791893E1,-3.497232546E0,1.229759339E1
5.486409458E0,-2.968121217E-1,-1.154974780E1,-3.966178656E0,1.221537330E1
5.496344458E0,-5.421556626E-2,-1.129025656E1,-4.136618561E0,1.202432724E1
5.506280458E0,-2.810974007E-1,-1.093829861E1,-3.971186796E0,1.164026275E1
5.516215458E0,-2.835002775E-1,-1.051409598E1,-4.014914029E0,1.125815799E1
5.526150458E0,7.210623717E-2,-1.015431680E1,-4.166577355E0,1.097614303E1
5.536086458E0,-1.159412780E-1,-9.823631029E0,-3.997526164E0,1.060647842E1
5.546021458E0,-3.565468748E-1,-9.488780285E0,-3.744786115E0,1.020722783E1
5.555957458E0,-1.702548400E-1,-9.218596821E0,-3.605353410E0,9.900004408E0
5.565892458E0,-5.697180484E-1,-8.837144938E0,-3.203834175E0,9.417232222E0
5.575827458E0,-1.032382495E0,-8.510563325E0,-2.744809912E0,9.001637806E0
5.585763458E0,-6.758855045E-1,-8.155025716E0,-1.999531260E0,8.423739722E0
5.595698458E0,-6.318729275E-1,-7.454508231E0,-1.199246973E0,7.576750601E0
5.605633458E0,-5.248421301E-1,-6.988750607E0,-8.756342849E-1,7.062919348E0
5.615569458E0,-6.138599950E-1,-7.018132866E0,-9.788320863E-1,7.112603270E0
5.625504458E0,-7.949450478E-1,-7.004179655E0,-1.133850544E0,7.139754010E0
5.635440458E0,-3.316280517E-1,-6.065573489E0,-1.481445003E0,6.252666488E0
5.645375458E0,5.327781174E-1,-5.172394926E0,-1.743025458E0,5.484127965E0
5.655310458E0,1.320540445E0,-3.821724948E0,-2.064923450E0,4.540189148E0
5.665246458E0,2.574660614E0,-2.004712624E0,-3.539846469E0,4.814380854E0
5.675181458E0,3.908277188E0,-8.278949851E-1,-5.353501321E0,6.679821635E0
5.685116458E0,4.618256053E0,1.595009333E-1,-7.157920496E0,8.519950431E0
5.695052458E0,4.850572363E0,1.314075764E0,-9.526689538E0,1.077091737E1
5.704987542E0,5.376469184E0,1.779201888E0,-1.138787348E1,1.271831918E1
5.714923542E0,6.731989428E0,1.434479290E0,-1.266803247E1,1.441722786E1
5.724858542E0,6.791928066E0,1.251459686E0,-1.358601609E1,1.524061257E1
5.734793542E0,5.890486218E0,6.070216763E-1,-1.423634810E1,1.541881676E1
5.744729542E0,5.045684009E0,-2.556005073E-1,-1.419936563E1,1.507137163E1
5.754664542E0,4.283233985E0,-1.142940041E0,-1.277701522E1,1.352421987E1
5.764600542E0,3.759994138E0,-1.730023296E0,-1.014427012E1,1.095612855E1
5.774535542E0,3.408213365E0,-2.130202643E0,-7.335036167E0,8.363996486E0
5.784470542E0,3.384709897E0,-2.261799493E0,-5.564319758E0,6.894465346E0
5.794406542E0,3.319335102E0,-2.144437104E0,-4.251477757E0,5.804451665E0
5.804341542E0,2.901506521E0,-2.133010476E0,-3.122580389E0,4.766443335E0
5.814276542E0,2.509804468E0,-2.153347092E0,-2.727176464E0,4.286433672E0
5.824212542E0,2.006589580E0,-2.360748416E0,-3.063451005E0,4.357093858E0
5.834147542E0,1.422381400E0,-2.400353946E0,-3.565693501E0,4.527586339E0
5.844083542E0,1.163029027E0,-2.094884291E0,-4.007036076E0,4.668780871E0
5.854018542E0,1.262016833E0,-2.002055064E0,-4.393300803E0,4.990190669E0
5.863953542E0,1.549675870E0,-2.525264506E0,-4.685509558E0,5.543686133E0
5.873889542E0,1.421265167E0,-3.109185587E0,-4.426210102E0,5.592706461E0
5.883824542E0,1.183343132E0,-3.545234093E0,-3.483147773E0,5.108943545E0
5.893759542E0,1.090860645E0,-3.546802901E0,-2.181587681E0,4.304545572E0
5.903695542E0,1.196915689E0,-3.162885246E0,-9.706448150E-1,3.518323692E0
5.913630542E0,1.558371264E0,-2.640242985E0,-2.650075078E-1,3.077276880E0
5.923566542E0,1.811803624E0,-2.092553591E0,-7.709203005E-2,2.768999112E0
5.933501542E0,1.903354941E0,-1.916482233E0,-6.277523947E-1,2.773037549E0
5.943436542E0,1.707121215E0,-2.190502054E0,-1.476185725E0,3.145105147E0
5.953372542E0,1.051596007E0,-2.926859463E0,-2.108912346E0,3.757641782E0
5.963307542E0,4.241757345E-1,-3.537104709E0,-2.155381338E0,4.163736722E0
5.973243542E0,3.263271122E-1,-3.583201234E0,-1.608491843E0,3.941201146E0
5.983178542E0,6.227821152E-1,-3.667223384E0,-1.219518101E0,3.914538198E0
5.993113542E0,1.328703597E0,-3.605612442E0,-8.171419555E-1,3.928564026E0
6.003049542E0,1.485569921E0,-3.404696557E0,-4.824245274E-1,3.745879077E0
6.012984542E0,1.017949813E0,-3.619383804E0,-3.475871497E-1,3.775841333E0
6.022919542E0,3.641799398E-1,-4.046596583E0,-4.006383526E-1,4.082656246E0
6.032855542E0,-3.560208812E-1,-4.658504485E0,-6.565294665E-1,4.717991717E0
6.042790542E0,-8.337878090E-1,-5.297664505E0,-8.671736562E-1,5.432535454E0
6.052726542E0,-9.450082827E-1,-5.405604690E0,1.751299560E-2,5.487614184E0
6.062661542E0,-8.966658425E-1,-5.454833568E0,3.062628887E0,6.319724249E0
6.072596542E0,-1.018297576E0,-5.630011472E0,7.538823912E0,9.464027953E0
6.082532542E0,-1.768774256E0,-5.149574997E0,1.220119077E1,1.336097831E1
6.092467542E0,-2.957852629E0,-4.341015585E0,1.571689467E1,1.657148414E1
6.102403542E0,-4.059284456E0,-3.652110085E0,1.798397713E1,1.879465700E1
6.112338542E0,-4.936749212E0,-3.588510213E0,1.904517309E1,1.999918790E1
6.122273542E0,-5.799524592E0,-3.480150490E0,1.925180083E1,2.040533676E1
6.132209542E0,-6.344252372E0,-3.799124290E0,1.934248881E1,2.070784288E1
6.142144542E0,-6.093781042E0,-4.848122964E0,1.894113592E1,2.047938216E1
6.152079542E0,-5.103174418E0,-5.675528537E0,1.754007055E1,1.912872416E1
6.162015542E0,-3.615360043E0,-6.278036163E0,1.504260780E1,1.669624556E1
6.171950542E0,-1.505379118E0,-6.379538564E0,1.227122171E1,1.391213717E1
6.181886542E0,6.500340870E-1,-6.246316772E0,1.032893571E1,1.208825589E1
6.191821542E0,2.260934690E0,-6.380448976E0,9.088491011E0,1.133237061E1
6.201756542E0,3.083959237E0,-6.589286960E0,8.447588228E0,1.114859875E1
6.211692542E0,2.889209534E0,-6.765034382E0,8.308667740E0,1.109716998E1
6.221627542E0,2.571655730E0,-7.200139732E0,8.205450935E0,1.121538454E1
6.231563542E0,2.685458919E0,-7.755935122E0,8.130948052E0,1.155329111E1
6.241498542E0,2.758285405E0,-8.797670385E0,7.635943240E0,1.197141478E1
6.251433542E0,2.753689494E0,-9.999481362E0,6.525937057E0,1.225399069E1
6.261369542E0,2.752087356E0,-1.093055924E1,4.935224842E0,1.230477770E1
6.271304542E0,2.662341367E0,-1.158186071E1,2.924517068E0,1.223847863E1
6.281239542E0,2.351252684E0,-1.178993622E1,8.181049919E-1,1.204990792E1
6.291175542E0,1.887640988E0,-1.164599297E1,-6.386527741E-1,1.181525362E1
6.301110542E0,1.534111167E0,-1.171930068E1,-1.287082677E0,1.188915840E1
6.311046542E0,1.810939259E0,-1.176918913E1,-1.592355282E0,1.201369673E1
6.320981542E0,2.181133499E0,-1.163306127E1,-1.807099539E0,1.197293058E1
6.330916542E0,2.105649892E0,-1.163210466E1,-2.090929526E0,1.200464938E1
6.340852542E0,1.692699350E0,-1.156045639E1,-2.230246164E0,1.189467869E1
6.350787542E0,1.424823929E0,-1.165621156E1,-2.476574156E0,1.200128372E1
6.360723542E0,1.404437465E0,-1.177250333E1,-2.541772365E0,1.212538189E1
6.370658542E0,1.395041720E0,-1.163417926E1,-2.677608447E0,1.201956136E1
6.380593542E0,1.967147772E0,-1.129300241E1,-2.669321773E0,1.176974309E1
6.390529542E0,2.156955408E0,-1.089542566E1,-2.276984712E0,1.133787530E1
6.400464542E0,1.857524611E0,-1.044349553E1,-2.306542972E0,1.085528153E1
6.410399542E0,1.228819705E0,-9.817093842E0,-2.762381380E0,1.027210204E1
6.420335542E0,-1.316112678E-1,-9.297185154E0,-3.144680525E0,9.815497385E0
6.430270542E0,-1.046120382E0,-9.048784908E0,-3.650333117E0,9.813246559E0
6.440206542E0,-9.269525193E-1,-8.554863585E0,-3.643750906E0,9.344616236E0
6.450141542E0,-6.555604367E-1,-7.766265398E0,-2.698236254E0,8.247734028E0
6.460076542E0,-4.247406486E-1,-6.751644258E0,-1.781249876E0,6.995566877E0
6.470012542E0,-3.970192916E-1,-6.127455742E0,-1.346929222E0,6.286299111E0
6.479947542E0,-7.281204361E-1,-5.631613024E0,-1.311701210E0,5.828017217E0
6.489882542E0,-8.290911792E-1,-4.939388645E0,-1.968485322E0,5.381439104E0
6.499818542E0,-7.113051595E-1,-4.624210272E0,-2.670792640E0,5.387245029E0
6.509753542E0,-5.612581506E-1,-4.214797588E0,-2.982379653E0,5.193661311E0
6.519689542E0,-1.261858374E-2,-3.269325621E0,-3.304843948E0,4.648724854E0
6.529624542E0,9.089195600E-1,-2.191301368E0,-4.372084765E0,4.974239806E0
6.539559542E0,1.733621088E0,-1.523162255E0,-5.924601797E0,6.358173621E0
6.549495542E0,2.138465343E0,-1.045614306E0,-7.421110690E0,7.793537526E0
6.559430542E0,2.458268571E0,-6.851129955E-1,-8.621937581E0,8.991677921E0
6.569366542E0,2.668927086E0,-1.770104206E-1,-9.652122254E0,1.001588581E1
6.579301542E0,2.830159380E0,5.069594443E-2,-1.072590786E1,1.109312722E1
6.589236542E0,2.548004035E0,-3.583951432E-1,-1.165419544E1,1.193486670E1
6.599172542E0,1.942633320E0,-1.122067820E0,-1.199728316E1,1.220523100E1
6.609107542E0,1.420174077E0,-1.910191213E0,-1.138582930E1,1.163197462E1
6.619042542E0,1.081991004E0,-2.311546435E0,-9.988771602E0,1.030968038E1
6.628978542E0,1.081632569E0,-2.658209724E0,-8.414322833E0,8.890266402E0
6.638913542E0,1.452858258E0,-2.833378857E0,-6.983701537E0,7.675344944E0
6.648849542E0,1.901790519E0,-2.634999202E0,-5.793376830E0,6.642532880E0
6.658784542E0,2.413065501E0,-2.128358431E0,-5.056743432E0,5.993617343E0
6.668719542E0,2.828474797E0,-1.703288072E0,-4.638300308E0,5.693442692E0
6.678655542E0,2.950038118E0,-1.546650521E0,-4.629052352E0,5.702892109E0
6.688590542E0,2.678263043E0,-1.709810641E0,-4.826499960E0,5.778550616E0
6.698526542E0,2.072464312E0,-1.994436727E0,-4.871292556E0,5.657064375E0
6.708462167E0,1.733822817E0,-2.135944024E0,-4.931506013E0,5.646959358E0
6.718397167E0,1.602602527E0,-2.430739002E0,-5.179071862E0,5.941347684E0
6.728333167E0,1.093788346E0,-2.796388201E0,-5.165654840E0,5.974960238E0
6.738268167E0,2.320882684E-1,-2.675450824E0,-4.154290308E0,4.946719119E0
6.748203167E0,3.541585431E-1,-2.421983382E0,-2.789293482E0,3.711009284E0
6.758139167E0,1.298235949E0,-2.381803070E0,-2.211485957E0,3.499867509E0
6.768074167E0,1.839541499E0,-2.288702533E0,-1.961131572E0,3.531020993E0
6.778010167E0,2.409999221E0,-2.235350198E0,-1.464539241E0,3.598577766E0
6.787945167E0,2.700755820E0,-2.330774419E0,-8.496594912E-1,3.667221379E0
6.797880167E0,2.226848054E0,-2.116269897E0,-2.042140067E-1,3.078823460E0
6.807816167E0,1.426743423E0,-2.108955030E0,4.100640643E-1,2.579038707E0
6.817751167E0,1.086653500E0,-2.578722675E0,5.865184146E-1,2.859131042E0
6.827686167E0,1.386524666E0,-2.834409721E0,8.563329184E-1,3.269500754E0
6.837622167E0,1.745798500E0,-2.841266166E0,2.493952081E0,4.164180929E0
6.847557167E0,1.581412802E0,-2.771344869E0,4.614253634E0,5.610040591E0
6.857493167E0,1.122569803E0,-2.660957331E0,5.857156504E0,6.530477715E0
6.867428167E0,3.819926417E-1,-2.407133500E0,5.488832204E0,6.005621452E0
6.877363167E0,-2.981988255E-1,-2.229719622E0,3.454588802E0,4.122469639E0
6.887299167E0,-5.828942373E-1,-2.329898506E0,1.181400102E0,2.676546084E0
6.897234167E0,-8.263952474E-1,-2.270672058E0,-4.591876924E-1,2.459620710E0
6.907170167E0,-5.758640933E-1,-1.920354551E0,-3.695715111E-1,2.038618198E0
6.917105167E0,2.008568826E-3,-2.326811907E0,3.337425803E0,4.068472523E0
6.927040167E0,1.679691634E-1,-3.011154678E0,8.134192672E0,8.675272708E0
6.936976167E0,-5.805201215E-1,-3.367563522E0,1.175908514E1,1.224555311E1
6.946911167E0,-2.297865997E0,-3.315768301E0,1.310965630E1,1.371632589E1
6.956846167E0,-4.002664112E0,-3.100558898E0,1.258136972E1,1.356191909E1
6.966782167E0,-5.068728470E0,-2.733713066E0,1.109633131E1,1.250175044E1
6.976717167E0,-4.964860870E0,-2.568378073E0,1.084232242E1,1.219845747E1
6.986653167E0,-3.909581409E0,-2.787449270E0,1.276687614E1,1.363993500E1
6.996588167E0,-3.092145631E0,-2.955478660E0,1.344088937E1,1.410509574E1
7.006523167E0,-2.798092080E0,-2.591136898E0,1.229836799E1,1.287606947E1
7.016459167E0,-1.897461825E0,-3.091992727E0,1.157271566E1,1.212800595E1
7.026394167E0,-6.010898953E-1,-3.905506485E0,1.123628325E1,1.191085015E1
7.036330167E0,1.370611469E-1,-4.378683348E0,1.127984033E1,1.210067979E1
7.046265167E0,2.459170796E-1,-4.691478688E0,1.164642800E1,1.255825357E1
7.056200167E0,3.143052368E-1,-5.203335468E0,1.093495517E1,1.211390657E1
7.066136167E0,2.183038960E-1,-5.510392642E0,9.757793135E0,1.120832773E1
7.076071167E0,4.080261634E-1,-5.953807470E0,8.767123361E0,1.060550615E1
7.086006167E0,8.080723393E-1,-6.472587061E0,8.169021612E0,1.045372079E1
7.095942167E0,1.061133108E0,-7.103005786E0,7.841568180E0,1.063338545E1
7.105877167E0,1.290043415E0,-7.967405523E0,7.522263427E0,1.103305080E1
7.115813167E0,1.313332875E0,-9.026177233E0,6.972390098E0,1.148089467E1
7.125748167E0,1.262445727E0,-9.889435594E0,6.001607873E0,1.163675224E1
7.135683167E0,1.522122328E0,-1.041457520E1,4.610940017E0,1.149090949E1
7.145619167E0,1.739116740E0,-1.077505020E1,3.252944062E0,1.138893669E1
7.155554167E0,1.607763280E0,-1.130037809E1,1.987207814E0,1.158587254E1
7.165490167E0,1.354186494E0,-1.170247123E1,3.520702100E-1,1.178582230E1
7.175425167E0,1.407035529E0,-1.163693329E1,-1.393106731E0,1.180418196E1
7.185360167E0,1.212189712E0,-1.151090826E1,-2.258857759E0,1.179291529E1
7.195296167E0,1.031406814E0,-1.175460266E1,-2.552722738E0,1.207273280E1
7.205231167E0,1.219147022E0,-1.171225713E1,-2.519705558E0,1.204210125E1
7.215166167E0,9.330784278E-1,-1.181288654E1,-2.360288240E0,1.208246185E1
7.225102167E0,3.984801453E-1,-1.185399714E1,-2.215117663E0,1.206576897E1
7.235037167E0,3.945807834E-1,-1.171405222E1,-2.210012020E0,1.192723214E1
7.244973167E0,5.483949340E-1,-1.174236444E1,-1.690464690E0,1.187609071E1
7.254908167E0,7.972028770E-1,-1.140997362E1,-9.227841854E-1,1.147495364E1
7.264843167E0,1.168445888E0,-1.088549124E1,-5.407984507E-1,1.096137073E1
7.274779167E0,9.169103649E-1,-1.067662285E1,-3.742359082E-1,1.072245553E1
7.284714167E0,-1.692992587E-1,-1.050977255E1,-9.750908916E-1,1.055626750E1
7.294649167E0,-9.866407505E-1,-1.016448394E1,-2.315742981E0,1.047152612E1
7.304585167E0,-1.040153152E0,-9.383949063E0,-3.503864750E0,1.007062495E1
7.314520167E0,-6.057273951E-1,-7.926604822E0,-4.035106511E0,8.915158677E0
7.324456167E0,-6.071251720E-2,-6.943213077E0,-4.177045040E0,8.103061095E0
7.334391167E0,-5.090483621E-2,-6.577738709E0,-3.895028567E0,7.644637687E0
7.344326167E0,-3.462080839E-1,-6.194370108E0,-3.224833280E0,6.992112039E0
7.354262167E0,-3.921265608E-1,-6.060905072E0,-2.307043202E0,6.496982520E0
7.364197167E0,-2.534244660E-1,-6.127259860E0,-1.113398446E0,6.232751676E0
7.374133167E0,5.003140837E-2,-5.363345693E0,-3.857071951E-1,5.377429703E0
7.384068167E0,9.534826523E-1,-3.857415183E0,-1.210132442E0,4.153697339E0
7.394003167E0,1.960812898E0,-2.746604422E0,-3.230282593E0,4.671546714E0
7.403939167E0,2.628079899E0,-1.550174637E0,-5.431133634E0,6.229531115E0
7.413874167E0,3.013324287E0,-4.402473915E-1,-7.536874450E0,8.128863235E0
7.423809167E0,3.234592575E0,7.397838771E-2,-9.420579531E0,9.960691774E0
7.433745167E0,3.473005777E0,2.909165204E-2,-1.096191552E1,1.149896549E1
7.443680167E0,3.482092642E0,-5.056438208E-2,-1.185806680E1,1.235885408E1
7.453616167E0,3.136214342E0,-7.453732306E-1,-1.241553801E1,1.282719789E1
7.463551167E0,2.527565970E0,-1.704838754E0,-1.290881613E1,1.326395864E1
7.473486167E0,1.899123019E0,-2.099694210E0,-1.238557921E1,1.270503666E1
7.483422167E0,1.325180796E0,-2.153869833E0,-1.060112009E1,1.089857819E1
7.493357167E0,1.388711379E0,-2.236800308E0,-8.421158813E0,8.823134968E0
7.503293167E0,1.753249606E0,-2.252207136E0,-6.963810478E0,7.526020034E0
7.513228167E0,2.062091351E0,-1.784847960E0,-6.222312198E0,6.793752429E0
7.523163167E0,2.244740826E0,-1.364831935E0,-5.661863594E0,6.241660592E0
7.533099167E0,2.348291507E0,-9.830958760E-1,-5.056675605E0,5.661353078E0
7.543034167E0,2.272290568E0,-6.444976509E-1,-4.709121784E0,5.268254893E0
7.552969167E0,1.839622922E0,-5.825861621E-1,-4.894348127E0,5.261013469E0
7.562905167E0,1.332520806E0,-3.951220894E-1,-5.187051557E0,5.370031379E0
7.572840167E0,1.230900875E0,1.554692781E-1,-5.370968124E0,5.512402947E0
7.582776167E0,1.644520047E0,4.516126245E-1,-5.382779499E0,5.646478131E0
7.592711167E0,2.431973349E0,8.781406939E-2,-5.183597022E0,5.726419804E0
7.602646167E0,2.834590400E0,-7.865867454E-1,-4.359129382E0,5.258862083E0
7.612582167E0,2.359907586E0,-1.717732449E0,-2.895488859E0,4.111401745E0
7.622517167E0,1.980477085E0,-2.395255174E0,-1.530794918E0,3.464515827E0
7.632452167E0,2.115247219E0,-2.778476425E0,-2.771849191E-1,3.503003500E0
7.642388167E0,2.368484867E0,-2.712729163E0,1.021720244E0,3.743331716E0
7.652323167E0,2.686771034E0,-2.280111219E0,2.145520594E0,4.125639875E0
7.662259167E0,2.822601269E0,-1.934392254E0,2.359801751E0,4.156635132E0
7.672194167E0,2.497667694E0,-1.948337279E0,1.189641752E0,3.383727170E0
7.682129167E0,1.839045217E0,-2.300727916E0,-9.291190588E-1,3.088478344E0
7.692065167E0,1.064205528E0,-2.680363655E0,-3.080956399E0,4.220091831E0
7.701999542E0,3.426053220E-1,-2.979897802E0,-4.112947862E0,5.090531351E0
7.711935542E0,1.416356429E-1,-3.228054804E0,-3.793233220E0,4.982872337E0
7.721870542E0,9.699560130E-1,-3.137608902E0,-2.135752235E0,3.917504550E0
7.731805542E0,1.985864709E0,-2.482833601E0,3.422843099E-1,3.197699154E0
7.741741542E0,3.108072277E0,-2.051508476E0,2.875272987E0,4.704890547E0
7.751676542E0,3.639815145E0,-1.879635419E0,5.226724915E0,6.640778338E0
7.761611542E0,3.076048831E0,-2.142382393E0,6.485018241E0,7.490483317E0
7.771547542E0,1.720594954E0,-2.400358185E0,6.846467385E0,7.456291442E0
7.781482542E0,2.318929714E-1,-3.016456933E0,6.078585883E0,6.789844852E0
7.791418542E0,-1.136430336E0,-3.583416996E0,4.550007352E0,5.902111332E0
7.801353542E0,-1.854197692E0,-2.857506515E0,4.166651030E0,5.381855941E0
7.811288542E0,-1.494068849E0,-1.766481271E0,5.914228252E0,6.350653008E0
7.821224542E0,-3.962161034E-1,-1.402977708E0,8.901624523E0,9.020213568E0
7.831159542E0,5.476481715E-1,-1.306300283E0,1.143770579E1,1.152507930E1
7.841095542E0,7.623421428E-1,-1.296859661E0,1.288575706E1,1.297327042E1
7.851030542E0,6.133796462E-1,-1.426373587E0,1.389646699E1,1.398293857E1
7.860965542E0,1.235934743E-1,-1.965791510E0,1.479181370E1,1.492237797E1
7.870901542E0,-4.954111934E-1,-3.308991378E0,1.506074586E1,1.542792669E1
7.880836542E0,-7.381340852E-1,-4.558940143E0,1.460365147E1,1.531650787E1
7.890771542E0,-1.124498800E0,-5.211942569E0,1.364869474E1,1.465318091E1
7.900707542E0,-1.458447319E0,-6.049479028E0,1.225233988E1,1.374201941E1
7.910642542E0,-1.245649015E0,-6.007962627E0,1.102434507E1,1.261679201E1
7.920578542E0,-8.593863344E-1,-6.254627420E0,1.080728941E1,1.251624598E1
7.930513542E0,4.882819757E-2,-6.847621626E0,1.102848139E1,1.298151408E1
7.940448542E0,1.006353761E0,-7.452514915E0,1.105855362E1,1.337326941E1
7.950384542E0,1.690456065E0,-8.382477143E0,1.092357883E1,1.387256787E1
7.960319542E0,2.184176536E0,-9.737934237E0,1.035688072E1,1.438273161E1
7.970255542E0,2.663991451E0,-1.104522197E1,9.689124019E0,1.493227722E1
7.980190542E0,2.838284086E0,-1.224330242E1,8.828035560E0,1.535866279E1
7.990125542E0,2.795640050E0,-1.345131379E1,7.700100644E0,1.574944430E1
8.000061542E0,2.719221034E0,-1.454603886E1,6.574210500E0,1.619264194E1
8.009996542E0,2.177641980E0,-1.580683538E1,5.309329115E0,1.681627619E1
8.019931542E0,1.859559296E0,-1.669866791E1,3.834787627E0,1.723395099E1
8.029867542E0,1.746042328E0,-1.723774143E1,2.356929599E0,1.748552289E1
8.039802542E0,1.578838273E0,-1.778884735E1,9.531224638E-1,1.788419031E1
8.049738542E0,1.978259236E0,-1.768247832E1,-4.239307362E-1,1.779784443E1
8.059673542E0,2.530906192E0,-1.678583118E1,-1.789445333E0,1.706961421E1
8.069608542E0,2.732809964E0,-1.554057539E1,-3.041325141E0,1.606945526E1
8.079544542E0,1.715303370E0,-1.490197875E1,-3.698727889E0,1.544965451E1
8.089479542E0,5.024808425E-1,-1.477306987E1,-3.808968077E0,1.526447897E1
8.099415542E0,1.437738966E-2,-1.403920922E1,-4.151963993E0,1.464030079E1
8.109350542E0,-6.845349251E-1,-1.341322970E1,-5.232813621E0,1.441407845E1
8.119285542E0,-8.862156256E-1,-1.279038663E1,-6.370019882E0,1.431630265E1
8.129221542E0,-8.445944868E-2,-1.129553191E1,-6.694673667E0,1.313068277E1
8.139156542E0,5.460105126E-1,-1.042905642E1,-5.683432803E0,1.188969107E1
8.149091542E0,-2.355492353E-2,-1.004582405E1,-4.108199046E0,1.085340662E1
8.159027542E0,-3.390753579E-1,-9.289897184E0,-2.951372453E0,9.753346151E0
8.168962542E0,-1.042152169E-1,-8.960054580E0,-2.324284594E0,9.257199240E0
8.178898542E0,-2.871327871E-1,-8.177350386E0,-2.119051125E0,8.452329989E0
8.188833542E0,3.533875877E-1,-6.800602995E0,-3.152248576E0,7.503982607E0
8.198768542E0,1.263346783E0,-5.654473883E0,-4.958525997E0,7.626014690E0
8.208704542E0,1.282400227E0,-5.176135390E0,-6.334053658E0,8.279925342E0
8.218639542E0,9.330273378E-1,-4.492326908E0,-7.300838141E0,8.622863714E0
8.228575542E0,1.333518341E0,-3.808027260E0,-7.861198452E0,8.836163414E0
8.238510542E0,1.735776080E0,-3.283185276E0,-8.379150077E0,9.165281238E0
8.248445542E0,2.060384841E0,-2.800706955E0,-9.118767309E0,9.759152748E0
8.258381542E0,2.481266547E0,-2.368531060E0,-9.974035449E0,1.054741704E1
8.268316542E0,2.773188204E0,-1.887152014E0,-1.056585904E1,1.108554432E1
8.278251542E0,3.157490020E0,-1.429564120E0,-1.114985204E1,1.167615508E1
8.288187542E0,3.563347013E0,-1.077494495E0,-1.181051608E1,1.238332453E1
8.298122542E0,3.840688637E0,-7.548229158E-1,-1.234141285E1,1.294724365E1
8.308058542E0,4.033860177E0,-8.170489848E-1,-1.236131561E1,1.302849648E1
8.317993542E0,4.188766953E0,-8.751761556E-1,-1.141044724E1,1.218646824E1
8.327928542E0,4.223119345E0,-9.624803478E-1,-1.005245363E1,1.094590925E1
8.337864542E0,4.137569318E0,-1.089164953E0,-8.826382552E0,9.808709860E0
8.347799542E0,3.960971126E0,-1.142421393E0,-7.832546511E0,8.851169626E0
8.357734542E0,3.676261425E0,-1.338587292E0,-6.845789108E0,7.884893310E0
8.367670542E0,3.416898234E0,-1.729028100E0,-5.771214713E0,6.926157014E0
8.377605542E0,3.203211738E0,-1.891071403E0,-4.752890824E0,6.035452566E0
8.387541542E0,2.932061731E0,-1.860855916E0,-4.040880929E0,5.328084967E0
8.397476542E0,2.586354753E0,-1.698730168E0,-3.983399291E0,5.044044508E0
8.407411542E0,2.330758339E0,-1.682468476E0,-4.023616440E0,4.944959440E0
8.417347542E0,1.976343980E0,-1.950051098E0,-4.048862379E0,4.909370772E0
8.427282542E0,1.518219312E0,-2.449733098E0,-4.226640539E0,5.115727941E0
8.437218542E0,1.118904476E0,-3.110274923E0,-4.321175398E0,5.440433268E0
8.447153542E0,9.627385023E-1,-3.752173487E0,-4.141074139E0,5.670464383E0
8.457088542E0,8.653592652E-1,-4.348796475E0,-3.856448930E0,5.876484986E0
8.467024542E0,7.886560750E-1,-5.004883892E0,-3.552918796E0,6.188220516E0
8.476959542E0,9.591214147E-1,-5.469902428E0,-2.652690245E0,6.154389652E0
8.486894542E0,1.100282848E0,-5.562671428E0,-1.043671276E0,5.765690374E0
8.496830542E0,8.101671043E-1,-5.260150523E0,1.105921319E0,5.435863890E0
8.506765542E0,9.094575039E-1,-5.287962220E0,2.457375993E0,5.901555232E0
8.516701542E0,8.364246109E-1,-5.153877379E0,2.534269803E0,5.803841969E0
8.526636542E0,6.949352945E-1,-4.846195722E0,1.647198656E0,5.165443974E0
8.536571542E0,3.213808063E-1,-4.495910667E0,4.012862241E-1,4.525210379E0
8.546507542E0,-5.576021791E-2,-4.407255183E0,-9.783210397E-1,4.514877574E0
8.556442542E0,1.742028800E-1,-4.112271339E0,-1.788968493E0,4.487931648E0
8.566377542E0,3.385565637E-1,-3.928965222E0,-1.854491222E0,4.357812060E0
8.576313542E0,3.025252900E-1,-4.360499092E0,-1.493430918E0,4.619070230E0
8.586248542E0,3.778184241E-1,-4.618205474E0,-3.521397918E-1,4.646995911E0
8.596184542E0,3.575535826E-1,-4.963205523E0,1.541917199E0,5.209487718E0
8.606119542E0,6.768254444E-2,-5.310034874E0,3.620100088E0,6.426988092E0
8.616054542E0,-3.431561297E-1,-5.187578391E0,5.535792362E0,7.594321745E0
8.625990542E0,-9.723579030E-1,-4.584215317E0,6.896288586E0,8.337823831E0
8.635925542E0,-1.556559066E0,-3.487266551E0,8.440968595E0,9.264656224E0
8.645861542E0,-2.068821789E0,-2.908885707E0,1.026781944E1,1.087059133E1
8.655796542E0,-2.391259479E0,-2.856327424E0,1.217046950E1,1.272780642E1
8.665731542E0,-2.587330946E0,-2.766962965E0,1.397363971E1,1.447801686E1
8.675667542E0,-3.031298336E0,-2.521047494E0,1.525967983E1,1.576078293E1
8.685602542E0,-3.295926359E0,-2.295095147E0,1.590482419E1,1.640408561E1
8.695537542E0,-3.622699760E0,-2.766948932E0,1.573256287E1,1.637966711E1
8.705472833E0,-3.672879980E0,-2.968005150E0,1.498574713E1,1.571215196E1
8.715407833E0,-3.032440589E0,-3.806354080E0,1.378496293E1,1.461879715E1
8.725343833E0,-1.981155362E0,-4.668601164E0,1.262743759E1,1.360782839E1
8.735278833E0,-6.817379826E-1,-4.949504328E0,1.172014970E1,1.274065417E1
8.745213833E0,7.194870222E-1,-5.087466457E0,1.108113791E1,1.221440108E1
8.755149833E0,2.127218370E0,-5.211951340E0,1.087086151E1,1.224194121E1
8.765084833E0,3.217240378E0,-5.389529525E0,1.084348133E1,1.252911615E1
8.775020833E0,3.829928007E0,-5.995090567E0,1.073476990E1,1.287807223E1
8.784955833E0,3.760915074E0,-7.030714320E0,1.006953568E1,1.284410273E1
8.794890833E0,3.065005780E0,-8.103834513E0,8.820088609E0,1.236367087E1
8.804826833E0,2.086716608E0,-8.999340268E0,7.087245201E0,1.164351991E1
8.814761833E0,1.129446567E0,-9.606606942E0,5.059806204E0,1.091623494E1
8.824697833E0,2.948549125E-1,-9.980027676E0,3.182395066E0,1.047929054E1
8.834632833E0,1.239316444E-2,-1.008097635E1,2.009632471E0,1.027934144E1
8.844567833E0,1.596450672E-1,-1.034617330E1,1.570038798E0,1.046584017E1
8.854503833E0,4.241098072E-1,-1.087783256E1,1.054768707E0,1.093707672E1
8.864438833E0,9.610135737E-1,-1.097081849E1,1.646324497E-1,1.101405962E1
8.874373833E0,1.639464836E0,-1.076375806E1,-7.028505242E-1,1.091056054E1
8.884309833E0,2.178412497E0,-1.046164646E1,-1.183827573E0,1.075141736E1
8.894244833E0,2.336543428E0,-1.020074603E1,-1.285746881E0,1.054361417E1
8.904180833E0,2.036497504E0,-1.009869107E1,-1.115168690E0,1.036216602E1
8.914115833E0,1.259723409E0,-1.014358833E1,-8.380625622E-1,1.025580987E1
8.924050833E0,5.630225480E-1,-1.021058339E1,-8.455576694E-1,1.026099290E1
8.933986833E0,4.064609003E-1,-1.024416512E1,-1.034792864E0,1.030431588E1
8.943921833E0,3.520508045E-1,-1.019328732E1,-1.135400056E0,1.026236715E1
8.953856833E0,2.462200385E-1,-9.836427076E0,-1.388635365E0,9.937013138E0
8.963792833E0,3.687975591E-1,-9.303978449E0,-1.894936413E0,9.502147685E0
8.973727833E0,3.432754129E-1,-8.727475730E0,-2.395885796E0,9.056872494E0
8.983663833E0,1.642319155E-1,-8.123624999E0,-2.979722093E0,8.654420778E0
8.993598833E0,8.756000787E-2,-7.432746649E0,-3.716548156E0,8.310602848E0
9.003533833E0,2.728281587E-2,-6.904514449E0,-4.177440312E0,8.069948680E0
9.013469833E0,-2.201665266E-1,-6.415879009E0,-3.990129144E0,7.558644544E0
9.023404833E0,-4.219915071E-1,-6.180522732E0,-3.158338744E0,6.953563237E0
9.033340833E0,-5.086908048E-1,-6.170480724E0,-1.923789791E0,6.483406964E0
9.043275833E0,-2.206739187E-1,-5.444064751E0,-1.390180492E0,5.623089880E0
9.053210833E0,4.255442753E-1,-4.634464535E0,-2.033433270E0,5.078799102E0
9.063146833E0,9.907998750E-1,-4.367427458E0,-3.278957155E0,5.550465478E0
9.073081833E0,1.319104077E0,-3.709217502E0,-4.636996379E0,6.082767911E0
9.083016833E0,1.769545504E0,-3.008076704E0,-6.090971455E0,7.019953704E0
9.092952833E0,2.053015595E0,-2.805648437E0,-7.235898380E0,8.027749470E0
9.102887833E0,2.243401814E0,-2.704524350E0,-7.878399206E0,8.626498578E0
9.112823833E0,2.474210419E0,-2.499820932E0,-8.270326377E0,8.987164195E0
9.122758833E0,2.594252880E0,-2.501742911E0,-8.646094767E0,9.367167145E0
9.132693833E0,2.593900877E0,-2.330634670E0,-8.610279402E0,9.289622765E0
9.142629833E0,2.801240513E0,-1.778949873E0,-8.445749279E0,9.074265367E0
9.152564833E0,3.021818245E0,-1.359555407E0,-8.454097933E0,9.080283491E0
9.162499833E0,3.214147201E0,-1.095833702E0,-8.546883305E0,9.196782479E0
9.172435833E0,3.385137329E0,-7.602391917E-1,-8.584820040E0,9.259387317E0
9.182370833E0,3.585722553E0,-5.125955755E-1,-8.631569114E0,9.360776988E0
9.192306833E0,3.625825682E0,-5.558918685E-1,-8.850324562E0,9.580389997E0
9.202241833E0,3.461110201E0,-7.715962386E-1,-8.891631632E0,9.572656771E0
9.212176833E0,3.091197505E0,-9.312199634E-1,-8.549238564E0,9.138498381E0
9.222112833E0,2.526454414E0,-9.836735809E-1,-8.031805587E0,8.477056482E0
9.232047833E0,2.040559272E0,-1.194569786E0,-7.598173735E0,7.957582750E0
9.241983833E0,1.716879340E0,-1.482823484E0,-6.988110922E0,7.347117422E0
9.251918833E0,1.287058412E0,-1.544199952E0,-6.272256190E0,6.586521887E0
9.261853833E0,8.340328074E-1,-1.691936288E0,-5.795630347E0,6.094882299E0
9.271789833E0,7.814347637E-1,-1.958897935E0,-5.246970899E0,5.654964635E0
9.281724833E0,8.364462456E-1,-1.996123064E0,-4.466235462E0,4.963004011E0
9.291659833E0,8.574105603E-1,-1.988104193E0,-3.717804138E0,4.302299241E0
9.301595833E0,8.046411932E-1,-2.038510115E0,-3.234324773E0,3.906894889E0
9.311530833E0,7.074885356E-1,-2.157296301E0,-2.931805038E0,3.708092251E0
9.321466833E0,5.803063327E-1,-2.314278254E0,-2.977347539E0,3.815394821E0
9.331401833E0,4.706552517E-1,-2.548238216E0,-3.246218010E0,4.153668949E0
9.341336833E0,4.356649286E-1,-2.822979584E0,-3.291150938E0,4.357831130E0
9.351272833E0,5.272951832E-1,-3.135119743E0,-3.023882020E0,4.387582305E0
9.361207833E0,8.027431870E-1,-3.510222720E0,-2.316875879E0,4.281819007E0
9.371143833E0,1.320849178E0,-3.762762794E0,-1.343795992E0,4.208184177E0
9.381078833E0,1.622174912E0,-3.790410184E0,-3.742346656E-1,4.139892800E0
9.391013833E0,1.823332871E0,-3.759684235E0,4.267093331E-1,4.200220133E0
9.400949833E0,2.022648081E0,-3.761650654E0,1.027659261E0,4.392858347E0
9.410884833E0,2.184731729E0,-3.604251210E0,1.432353242E0,4.451439691E0
9.420819833E0,1.984136272E0,-3.736050375E0,1.650269029E0,4.540733092E0
9.430755833E0,1.427274643E0,-4.089816862E0,1.933463132E0,4.743626730E0
9.440690833E0,8.037632337E-1,-4.303078850E0,2.122642778E0,4.864990780E0
9.450626833E0,2.622422133E-1,-4.485541214E0,1.834477957E0,4.853262855E0
9.460561833E0,1.514854239E-1,-4.340506877E0,1.327338418E0,4.541450766E0
9.470496833E0,1.215751617E-1,-4.091999043E0,1.129068691E0,4.246649596E0
9.480432833E0,-1.172314113E-1,-4.265104693E0,1.547705358E0,4.538750171E0
9.490367833E0,-1.383935080E-1,-4.110137983E0,2.644018532E0,4.889092042E0
9.500303833E0,2.165687348E-1,-3.515433174E0,4.982128283E0,6.101374816E0
9.510238833E0,3.286524037E-1,-3.366355487E0,7.740149978E0,8.446909693E0
9.520173833E0,2.968882817E-1,-3.522152794E0,1.002696328E1,1.063173060E1
9.530109833E0,3.537211713E-1,-3.279595086E0,1.193058748E1,1.237819778E1
9.540044833E0,-1.290565279E-1,-3.341815015E0,1.394512986E1,1.434053799E1
9.549979833E0,-1.258565661E0,-3.706943227E0,1.576104583E1,1.623995016E1
9.559915833E0,-2.302916968E0,-4.155875488E0,1.680661921E1,1.746531353E1
9.569850833E0,-3.377628334E0,-4.397863970E0,1.692840384E1,1.781349032E1
9.579786833E0,-3.827709573E0,-4.605782772E0,1.596098318E1,1.704750949E1
9.589721833E0,-3.272257415E0,-4.797833986E0,1.424608839E1,1.538433989E1
9.599656833E0,-2.398747862E0,-5.103827552E0,1.207606504E1,1.332795535E1
9.609592833E0,-1.422981910E0,-5.274600163E0,9.556685754E0,1.100802103E1
9.619527833E0,1.476261154E-2,-4.391535236E0,7.912026544E0,9.049086346E0
9.629463833E0,1.791655727E0,-4.335972069E0,7.779479520E0,9.084656605E0
9.639398833E0,2.947718528E0,-4.841248392E0,8.392600427E0,1.012731319E1
9.649333833E0,3.010733094E0,-5.529512452E0,8.677166871E0,1.072069245E1
9.659269833E0,2.382710411E0,-6.317533520E0,8.418127617E0,1.079135817E1
9.669204833E0,1.511579067E0,-7.251473608E0,7.801519430E0,1.075790157E1
9.679139833E0,7.436105143E-1,-8.128894510E0,6.903285949E0,1.069052101E1
9.689075833E0,1.170347987E-1,-8.853513048E0,5.806455297E0,1.058835745E1
9.699010833E0,-3.290560808E-1,-9.384894558E0,4.416874437E0,1.037753842E1
9.708946792E0,-3.523843516E-1,-9.637649226E0,2.732621391E0,1.002375563E1
9.718881792E0,3.247363771E-1,-9.577284325E0,1.188943010E0,9.656262954E0
9.728816792E0,9.059121177E-1,-9.522159700E0,5.076792365E-1,9.578618915E0
9.738752792E0,9.140143852E-1,-9.635460613E0,3.859501469E-1,9.686407024E0
9.748687792E0,7.453713302E-1,-9.736031553E0,2.294269082E-1,9.767216877E0
9.758622792E0,4.596317153E-1,-9.856262001E0,5.106198013E-2,9.867105415E0
9.768558792E0,1.385293462E-1,-1.000158870E1,-1.393631226E-1,1.000351883E1
9.778493792E0,-3.398679480E-2,-1.010037039E1,-3.721466249E-1,1.010728105E1
9.788429792E0,-5.057103328E-2,-9.959142591E0,-5.477737404E-1,9.974323769E0
9.798364792E0,8.725427158E-2,-9.830851171E0,-6.064814667E-1,9.849927300E0
9.808299792E0,1.290239297E-1,-9.864023595E0,-5.491114372E-1,9.880138259E0
9.818235792E0,2.164450662E-1,-9.689187754E0,-6.248556840E-1,9.711727571E0
9.828170792E0,2.094617365E-1,-9.418285083E0,-9.602204720E-1,9.469424031E0
9.838106792E0,3.663203131E-1,-8.872123566E0,-1.661894463E0,9.033861874E0
9.848041792E0,6.669993447E-1,-8.187390055E0,-2.326498496E0,8.537613208E0
9.857976792E0,8.722926012E-1,-7.709321703E0,-2.767224044E0,8.237236455E0
9.867912792E0,8.321818712E-1,-7.403990042E0,-3.130256906E0,8.081466668E0
9.877847792E0,5.007795221E-1,-7.286257524E0,-3.293383405E0,8.011660446E0
9.887782792E0,1.459330541E-1,-7.294693887E0,-2.925121963E0,7.860673881E0
9.897718792E0,-5.435747087E-2,-7.078810592E0,-2.165368967E0,7.402792507E0
9.907653792E0,-3.096246868E-2,-6.693185551E0,-2.070875039E0,7.006298232E0
9.917589792E0,4.426903582E-1,-6.243603079E0,-2.662830194E0,6.802148103E0
9.927524792E0,1.219488572E0,-5.415666579E0,-3.799333620E0,6.726925957E0
9.937459792E0,1.848409533E0,-4.475336654E0,-5.405160302E0,7.256790878E0
9.947395792E0,2.344092622E0,-3.586507834E0,-7.374239409E0,8.528611582E0
9.957330792E0,3.286248048E0,-2.929359148E0,-9.405748068E0,1.038502133E1
9.967266792E0,4.368876983E0,-2.463012709E0,-1.106817229E1,1.215145899E1
9.977201792E0,4.979791151E0,-2.038293183E0,-1.226020438E1,1.338900932E1
9.987136792E0,5.206592951E0,-1.630818266E0,-1.249789604E1,1.363691988E1
9.997072792E0,5.489240339E0,-1.244033722E0,-1.198489876E1,1.324073932E1
1.000700779E1,5.521132808E0,-1.179323756E0,-1.162896354E1,1.292696813E1
1.001694279E1,5.140581980E0,-1.462030200E0,-1.112417107E1,1.234140581E1
1.002687879E1,4.535115078E0,-1.750202038E0,-9.963310486E0,1.108593847E1
1.003681379E1,4.039086419E0,-2.143240179E0,-8.666647730E0,9.798902002E0
1.004674979E1,3.610818803E0,-2.527156665E0,-7.366655570E0,8.584413057E0
1.005668479E1,3.299504855E0,-2.590373252E0,-6.033614362E0,7.348555515E0
1.006661979E1,3.079377651E0,-2.421893334E0,-5.035475940E0,6.379980563E0
1.007655579E1,2.759866492E0,-2.084862748E0,-4.676912981E0,5.816960612E0
1.008649079E1,2.509815577E0,-1.581221598E0,-4.841368260E0,5.677876593E0
1.009642679E1,2.230087119E0,-9.101167774E-1,-5.214284964E0,5.743724296E0
1.010636179E1,2.282228495E0,-5.483284950E-1,-5.448761820E0,5.932810161E0
1.011629679E1,2.196676129E0,-6.574761307E-1,-5.452333299E0,5.914862575E0
1.012623279E1,1.869402791E0,-8.748925656E-1,-5.328509152E0,5.714290295E0
1.013616779E1,1.463231218E0,-1.221993227E0,-5.186570331E0,5.525832502E0
1.014610279E1,8.234943706E-1,-1.383681019E0,-4.851428980E0,5.111661108E0
1.015603879E1,7.031960946E-1,-1.680426044E0,-4.213952665E0,4.590829283E0
1.016597379E1,9.225274926E-1,-1.797127697E0,-3.555853221E0,4.089598644E0
1.017590979E1,1.166547589E0,-1.979373715E0,-2.970669141E0,3.755479827E0
1.018584479E1,1.586487016E0,-2.251748714E0,-2.548245817E0,3.752448543E0
1.019577979E1,1.830771992E0,-2.791179501E0,-2.122896839E0,3.955894347E0
1.020571579E1,2.062286648E0,-3.412510484E0,-1.905139804E0,4.419028365E0
1.021565079E1,2.034114178E0,-4.069864408E0,-1.461950094E0,4.778986803E0
1.022558579E1,1.694794407E0,-4.512890981E0,-7.099923134E-1,4.872638112E0
1.023552179E1,1.733359133E0,-4.463064517E0,7.521396285E-1,4.846565051E0
1.024545679E1,2.096160153E0,-4.157409505E0,2.275476131E0,5.182251712E0
1.025539279E1,2.413075733E0,-3.710086398E0,3.322016051E0,5.533847325E0
1.026532779E1,2.359416128E0,-3.312538884E0,3.676902865E0,5.482642884E0
1.027526279E1,1.752982973E0,-3.396603718E0,3.323755597E0,5.065295391E0
1.028519879E1,9.618719450E-1,-3.678500324E0,2.547320203E0,4.576614741E0
1.029513379E1,2.280744472E-1,-3.835634304E0,1.735507400E0,4.216170585E0
1.030506979E1,-3.641917804E-1,-3.884680749E0,9.247909498E-1,4.009815267E0
1.031500479E1,-4.859875283E-1,-3.485057766E0,5.693714547E-1,3.564547006E0
1.032493979E1,-6.511093900E-1,-3.231556701E0,1.701495901E0,3.709715683E0
1.033487579E1,-7.981651095E-1,-3.487125049E0,4.302838529E0,5.595670474E0
1.034481079E1,-5.815982750E-1,-3.694143672E0,7.216445278E0,8.127855589E0
1.035474579E1,-7.988401705E-1,-3.811738780E0,9.486421518E0,1.025473995E1
1.036468179E1,-1.653589517E0,-3.690411979E0,1.106625089E1,1.178199507E1
1.037461679E1,-2.837904602E0,-3.041632412E0,1.183480073E1,1.254462987E1
1.038455279E1,-3.576728658E0,-2.700351777E0,1.221197421E1,1.300835123E1
1.039448779E1,-3.678220242E0,-2.354635152E0,1.229214421E1,1.304493849E1
1.040442279E1,-3.426159639E0,-2.310551823E0,1.172864219E1,1.243536358E1
1.041435879E1,-2.912956831E0,-2.491643016E0,1.073933774E1,1.140293724E1
1.042429379E1,-2.485038001E0,-2.594849296E0,9.925192487E0,1.055547738E1
1.043422979E1,-1.707320020E0,-2.938947119E0,9.413956974E0,1.000874306E1
1.044416479E1,-5.269272472E-1,-3.265943007E0,9.227266488E0,9.802371289E0
1.045409979E1,3.296119317E-1,-3.579135080E0,9.513528625E0,1.016986130E1
1.046403579E1,8.647868959E-1,-3.962788441E0,9.900596759E0,1.069922263E1
1.047397079E1,1.140511034E0,-4.221685316E0,1.006854984E1,1.097720767E1
1.048390579E1,1.546338864E0,-4.539722099E0,1.012023923E1,1.119908401E1
1.049384179E1,1.793318236E0,-5.173949116E0,1.011829678E1,1.150502801E1
1.050377679E1,1.723775547E0,-6.086750350E0,9.981124613E0,1.181705465E1
1.051371279E1,1.202426251E0,-7.131750113E0,9.324230281E0,1.180037961E1
1.052364779E1,6.171885956E-1,-8.103892400E0,7.982425851E0,1.139180040E1
1.053358279E1,3.835618517E-1,-8.741965715E0,6.286050941E0,1.077420627E1
1.054351879E1,6.917622299E-1,-8.901706384E0,4.680744662E0,1.008108536E1
1.055345379E1,9.564442670E-1,-9.051332540E0,3.459989290E0,9.737193244E0
1.056338879E1,1.147339047E0,-9.158809041E0,2.615025698E0,9.593671317E0
1.057332479E1,8.508610940E-1,-9.363702495E0,2.069942992E0,9.627437509E0
1.058325979E1,4.545056807E-1,-9.739781372E0,1.252870619E0,9.830544307E0
1.059319579E1,6.345269787E-1,-9.881331353E0,2.536399359E-1,9.904931449E0
1.060313079E1,1.130404926E0,-9.671073080E0,-3.207729882E-1,9.742195087E0
1.061306579E1,1.233358606E0,-9.429987701E0,-6.523212254E-1,9.532647296E0
1.062300179E1,1.039823662E0,-9.361306306E0,-1.335383456E0,9.513071952E0
1.063293679E1,8.849238295E-1,-9.080805430E0,-2.006056899E0,9.341754746E0
1.064287279E1,6.573827215E-1,-8.813697603E0,-2.073833730E0,9.078226909E0
1.065280779E1,8.134194718E-1,-8.709517177E0,-1.623817395E0,8.896860324E0
1.066274279E1,6.582442356E-1,-8.563946065E0,-1.127495059E0,8.662892288E0
1.067267879E1,4.539020287E-1,-8.176510726E0,-1.466137869E0,8.319309764E0
1.068261379E1,5.472379893E-1,-7.472911758E0,-2.413156425E0,7.871925018E0
1.069254879E1,6.447761245E-1,-7.055104811E0,-3.471192555E0,7.889196277E0
1.070248479E1,4.644032626E-1,-6.808342370E0,-4.264899455E0,8.047270567E0
1.071241946E1,3.239838405E-1,-6.371364157E0,-4.552280457E0,7.837251055E0
1.072235546E1,2.587601964E-1,-5.827104154E0,-4.534485041E0,7.388075138E0
1.073229046E1,2.507351853E-1,-5.641415296E0,-4.415204473E0,7.168156333E0
1.074222546E1,1.944055948E-1,-5.465461468E0,-4.207892026E0,6.900392590E0
1.075216146E1,2.152541345E-1,-5.122945023E0,-4.149083070E0,6.595891932E0
1.076209646E1,2.648715600E-1,-5.012456036E0,-4.126947558E0,6.498197335E0
1.077203246E1,2.031916210E-1,-4.654857869E0,-4.207917462E0,6.278181104E0
1.078196746E1,6.627240068E-1,-3.813576268E0,-4.681081754E0,6.074133144E0
1.079190246E1,1.446156179E0,-2.941186311E0,-5.511712943E0,6.412559877E0
1.080183846E1,2.224015371E0,-2.237750480E0,-6.374973643E0,7.112950199E0
1.081177346E1,3.009850456E0,-1.912357022E0,-7.446229159E0,8.256066729E0
1.082170846E1,3.025803707E0,-1.924392346E0,-8.884085215E0,9.580487675E0
1.083164446E1,2.887512964E0,-1.839345764E0,-1.032145946E1,1.087444019E1
1.084157946E1,3.078182188E0,-2.143386945E0,-1.134369192E1,1.194774705E1
1.085151546E1,3.216478778E0,-2.444906806E0,-1.189298287E1,1.256050741E1
1.086145046E1,2.954343715E0,-2.417041900E0,-1.173818134E1,1.234322241E1
1.087138546E1,2.556634233E0,-2.261700675E0,-1.084335971E1,1.136794257E1
1.088132146E1,2.330811256E0,-2.242355163E0,-9.360711644E0,9.903724565E0
1.089125646E1,2.250007706E0,-2.142426247E0,-8.045602677E0,8.624630272E0
1.090119246E1,2.039015899E0,-1.907742984E0,-6.922261333E0,7.464232787E0
1.091112746E1,1.951110029E0,-1.310144681E0,-5.690410286E0,6.156628838E0
1.092106246E1,2.478813348E0,-7.059442860E-1,-5.500358820E0,6.074275273E0
1.093099846E1,2.739878955E0,-2.807645845E-1,-5.692436346E0,6.323732837E0
1.094093346E1,2.731144092E0,4.362373710E-2,-5.875186393E0,6.479109988E0
1.095086846E1,2.558662047E0,2.376179802E-1,-6.001781536E0,6.528751441E0
1.096080446E1,2.178931584E0,1.873494673E-1,-6.216780147E0,6.590235054E0
1.097073946E1,1.737700106E0,-2.565904409E-1,-6.379619840E0,6.617022716E0
1.098067546E1,1.313229672E0,-1.058500984E0,-6.334444252E0,6.555164414E0
1.099061046E1,9.408813179E-1,-1.898305578E0,-6.006183320E0,6.368913549E0
1.100054546E1,1.144931602E0,-2.838344312E0,-5.307443973E0,6.126665352E0
1.101048146E1,1.729105576E0,-3.796220562E0,-4.263982320E0,5.965118764E0
1.102041646E1,2.009226090E0,-4.506840282E0,-2.725973984E0,5.637333853E0
1.103035146E1,1.882573060E0,-4.877181872E0,-1.078447299E0,5.337980228E0
1.104028746E1,1.535715350E0,-4.730798582E0,2.447065598E-1,4.979835154E0
1.105022246E1,9.109046897E-1,-4.400644906E0,1.948479366E0,4.898162388E0
1.106015846E1,8.643272316E-1,-4.951862510E0,2.041837181E0,5.425597014E0
1.107009346E1,7.518154004E-1,-5.312697111E0,9.426582867E-1,5.447805213E0
1.108002846E1,4.067826068E-1,-5.253209878E0,-1.428071326E-1,5.270870895E0
1.108996446E1,4.838851619E-1,-4.945419463E0,-1.556540501E-1,4.971473292E0
1.109989946E1,6.450987446E-1,-4.615942602E0,6.707434630E-1,4.708818885E0
1.110983546E1,9.397791177E-1,-4.275623249E0,1.522947078E0,4.635030394E0
1.111977046E1,1.584370324E0,-3.735879343E0,2.920729242E0,4.999768304E0
1.112970546E1,1.824075614E0,-3.611354992E0,4.895264386E0,6.350807046E0
1.113964146E1,1.501807493E0,-3.883823840E0,6.674323602E0,7.866772458E0
1.114957646E1,9.891972993E-1,-3.927770635E0,7.704398932E0,8.704232096E0
1.115951146E1,2.551713216E-1,-3.834417499E0,8.369443114E0,9.209530281E0
1.116944746E1,-8.335887113E-1,-3.717465000E0,8.616410792E0,9.421090760E0
1.117938246E1,-1.774862670E0,-3.402302415E0,8.616547617E0,9.432427686E0
1.118931846E1,-2.460366552E0,-3.014836085E0,8.277805551E0,9.146841254E0
1.119925346E1,-2.668618938E0,-2.591445047E0,7.907149966E0,8.738428637E0
1.120918846E1,-2.158765999E0,-2.067931843E0,8.233687724E0,8.759579115E0
1.121912446E1,-1.499771639E0,-1.725466561E0,9.296847770E0,9.573814719E0
1.122905946E1,-9.992789224E-1,-1.530752964E0,1.104027405E1,1.119059490E1
1.123899546E1,-7.466236576E-1,-1.812234125E0,1.272493524E1,1.287499966E1
1.124893046E1,-7.625994202E-1,-2.366944418E0,1.362579470E1,1.385085792E1
1.125886546E1,-7.456195445E-1,-2.906468468E0,1.365398530E1,1.397980050E1
1.126880146E1,-5.160205820E-1,-3.471244011E0,1.308242698E1,1.354495139E1
1.127873646E1,-1.806321859E-2,-4.101234135E0,1.280698454E1,1.344765037E1
1.128867146E1,6.745782132E-1,-4.694397033E0,1.287966426E1,1.372509274E1
1.129860746E1,1.196845960E0,-5.536197574E0,1.247396105E1,1.369969445E1
1.130854246E1,1.718030072E0,-6.738220806E0,1.158321843E1,1.351022562E1
1.131847846E1,2.064548351E0,-7.637008018E0,1.038271957E1,1.305324163E1
1.132841346E1,2.133483515E0,-8.154072620E0,8.796335465E0,1.218261753E1
1.133834846E1,1.887938757E0,-8.557857360E0,6.804427659E0,1.109511023E1
1.134828446E1,1.125053920E0,-8.867319494E0,4.908051662E0,1.019725808E1
1.135821946E1,3.439604142E-1,-9.404883265E0,4.117646100E0,1.027254338E1
1.136815446E1,-8.752620365E-2,-1.007096240E1,3.996679487E0,1.083537685E1
1.137809046E1,-3.328898808E-1,-1.050715300E1,3.259345009E0,1.100610783E1
1.138802546E1,-1.913075206E-1,-1.063231265E1,2.175101073E0,1.085420359E1
1.139796146E1,1.606486686E-1,-1.077566767E1,1.292610050E0,1.085410809E1
1.140789646E1,4.105432436E-1,-1.093265371E1,3.483864641E-1,1.094590499E1
1.141783146E1,8.987337103E-1,-1.086918452E1,-4.224893975E-1,1.091445792E1
1.142776746E1,1.261344988E0,-1.061099955E1,-8.814630818E-1,1.072199980E1
1.143770246E1,1.549448121E0,-1.013698565E1,-1.267679277E0,1.033277690E1
1.144763846E1,1.321379813E0,-9.794385595E0,-1.419758924E0,9.984575565E0
1.145757346E1,6.883244325E-1,-9.904402127E0,-1.377919319E0,1.002345418E1
1.146750846E1,2.342909876E-1,-1.014873388E1,-1.526630824E0,1.026558782E1
1.147744446E1,1.248555227E-1,-1.000595189E1,-2.039110624E0,1.021237652E1
1.148737946E1,3.883725753E-1,-9.550557872E0,-2.471190625E0,9.872728702E0
1.149731546E1,4.684276088E-1,-9.201891911E0,-2.394922467E0,9.519973361E0
1.150725046E1,5.386072066E-1,-8.802290854E0,-2.134032569E0,9.073285900E0
1.151718546E1,3.215920369E-1,-8.381095446E0,-1.953214588E0,8.611691444E0
1.152712146E1,1.630925855E-1,-7.790054210E0,-2.261770988E0,8.113393358E0
1.153705646E1,3.795300503E-1,-7.106166206E0,-2.710950440E0,7.615175211E0
1.154699146E1,4.886763704E-1,-6.777206531E0,-2.776274364E0,7.340097568E0
1.155692746E1,2.592061928E-1,-6.308604822E0,-2.727658859E0,6.877921597E0
1.156686246E1,9.480821639E-2,-5.982907893E0,-2.979237067E0,6.684312153E0
1.157679846E1,-6.668544799E-2,-5.982512037E0,-3.501393132E0,6.932146210E0
1.158673346E1,-2.653907928E-1,-5.734989458E0,-4.176450086E0,7.099526158E0
1.159666846E1,-2.165887615E-1,-5.322166677E0,-4.917051111E0,7.249121358E0
1.160660446E1,-9.607940108E-2,-5.080338702E0,-5.676367028E0,7.618412906E0
1.161653946E1,2.378907529E-1,-4.611225945E0,-6.383952627E0,7.878759285E0
1.162647446E1,8.739052632E-1,-3.896160003E0,-7.312154843E0,8.331349328E0
1.163641046E1,1.513860797E0,-3.323926921E0,-8.360997981E0,9.123954840E0
1.164634546E1,2.173462683E0,-2.727722009E0,-9.486905082E0,1.010770871E1
1.165628146E1,2.822269732E0,-2.031033865E0,-1.082815227E1,1.137273875E1
1.166621646E1,3.369146948E0,-1.540539011E0,-1.228668291E1,1.283304284E1
1.167615146E1,3.777661500E0,-1.257538451E0,-1.335410733E1,1.393500312E1
1.168608746E1,4.094001129E0,-1.092740525E0,-1.366965233E1,1.431133543E1
1.169602246E1,4.416197330E0,-9.072072029E-1,-1.344544318E1,1.418117647E1
1.170595933E1,4.481527101E0,-9.562214881E-1,-1.293335339E1,1.372115427E1
1.171589433E1,4.256872398E0,-1.277412552E0,-1.191811771E1,1.271983786E1
1.172582933E1,3.786417705E0,-1.549707445E0,-1.023127668E1,1.101896433E1
1.173576533E1,3.461491440E0,-1.497829778E0,-8.138893833E0,8.970340565E0
1.174570033E1,3.196142455E0,-1.457276999E0,-6.442120728E0,7.337567875E0
1.175563533E1,3.049994808E0,-1.318299208E0,-5.192760193E0,6.164830862E0
1.176557133E1,3.138922187E0,-9.680580068E-1,-4.276250070E0,5.392242897E0
1.177550633E1,3.204406909E0,-5.686347055E-1,-3.947124335E0,5.115795107E0
1.178544233E1,3.232125635E0,-2.569383502E-1,-4.014370238E0,5.160215291E0
1.179537733E1,3.372232524E0,-2.810452509E-1,-4.104964074E0,5.319931266E0
1.180531233E1,3.506121483E0,-6.511178684E-1,-4.032294878E0,5.382958695E0
1.181524833E1,3.273268983E0,-1.474788240E0,-3.661035275E0,5.127618305E0
1.182518333E1,3.212242763E0,-2.407281727E0,-2.638730310E0,4.803790850E0
1.183511833E1,2.925532730E0,-2.896472653E0,-7.624558711E-1,4.186840639E0
1.184505433E1,2.458040237E0,-2.950328432E0,1.367330742E0,4.076271952E0
1.185498933E1,2.040145581E0,-2.734497762E0,2.814562809E0,4.422831199E0
1.186492533E1,1.590314603E0,-2.641766185E0,2.940204856E0,4.260614240E0
1.187486033E1,1.137143988E0,-2.668284477E0,1.784551798E0,3.405504900E0
1.188479533E1,7.323883188E-1,-2.645668616E0,5.489307582E-2,2.745718180E0
1.189473133E1,4.461045474E-1,-2.647256135E0,-1.469525746E0,3.060470590E0
1.190466633E1,7.370415330E-2,-3.011221336E0,-2.681966962E0,4.033092241E0
1.191460233E1,4.243002802E-2,-3.372503250E0,-3.189424589E0,4.641983163E0
1.192453733E1,5.391261470E-1,-3.443226492E0,-2.594789654E0,4.345043041E0
1.193447233E1,1.017323138E0,-3.248889602E0,-1.184921880E0,3.604756563E0
1.194440833E1,1.398549611E0,-3.512423027E0,5.331198871E-1,3.818019559E0
1.195434333E1,1.471247751E0,-3.914585457E0,1.988948531E0,4.630816936E0
1.196427833E1,1.135904963E0,-4.313518469E0,2.961414753E0,5.354129155E0
1.197421433E1,2.391215917E-1,-4.756415526E0,3.458714013E0,5.885861909E0
1.198414933E1,-6.539879742E-1,-4.838525636E0,3.720896730E0,6.138737906E0
1.199408533E1,-9.702252772E-1,-4.246140418E0,4.802038718E0,6.483102760E0
1.200402033E1,-1.119611112E0,-3.702216923E0,6.834280034E0,7.852854434E0
1.201395533E1,-1.128583665E0,-3.242173198E0,8.908169312E0,9.546772681E0
1.202389133E1,-9.025443408E-1,-2.859789560E0,1.049742674E1,1.091736922E1
1.203382633E1,-8.766543317E-1,-2.423420042E0,1.166822876E1,1.194943722E1
1.204376233E1,-9.495775893E-1,-2.011476098E0,1.239368579E1,1.259171081E1
1.205369733E1,-8.647663575E-1,-2.048698011E0,1.304148244E1,1.322971083E1
1.206363233E1,-1.056104795E0,-2.610543515E0,1.365483081E1,1.394219133E1
1.207356833E1,-1.174543657E0,-3.405744671E0,1.385847880E1,1.431908112E1
1.208350333E1,-1.280337622E0,-3.992399910E0,1.355634966E1,1.418989562E1
1.209343833E1,-1.393395583E0,-4.494392145E0,1.270740762E1,1.355062067E1
1.210337433E1,-1.317813889E0,-4.666529496E0,1.174362276E1,1.270534559E1
1.211330933E1,-6.942728050E-1,-4.544101079E0,1.076603613E1,1.170634030E1
1.212324533E1,2.673965339E-1,-4.480140726E0,9.999894176E0,1.096088707E1
1.213318033E1,1.247541174E0,-4.628132585E0,9.489942126E0,1.063179062E1
1.214311533E1,2.101533891E0,-5.041484538E0,9.097772881E0,1.061143169E1
1.215305133E1,2.655004866E0,-5.858621816E0,8.722512029E0,1.083765272E1
1.216298633E1,2.653605627E0,-6.933737079E0,8.215412251E0,1.107300010E1
1.217292233E1,2.095273131E0,-7.867935029E0,7.530250724E0,1.109050256E1
1.218285733E1,1.372047106E0,-8.807540485E0,6.587267917E0,1.108365379E1
1.219279233E1,6.773713551E-1,-9.597204035E0,5.547037727E0,1.110561951E1
1.220272833E1,4.571674794E-2,-1.021958108E1,4.288199440E0,1.108289592E1
1.221266333E1,-1.219654633E-1,-1.051164015E1,2.882472079E0,1.090037153E1
1.222259833E1,-4.973970540E-2,-1.045774987E1,1.292780789E0,1.053747069E1
1.223253433E1,4.456322385E-1,-1.020695110E1,-3.484572154E-1,1.022261519E1
1.224246933E1,1.161690673E0,-9.732206304E0,-1.375833763E0,9.897387701E0
1.225240533E1,1.654282704E0,-9.532107568E0,-1.523030401E0,9.793740223E0
1.226234033E1,1.691787038E0,-9.568621091E0,-8.222632393E-1,9.751757267E0
1.227227533E1,1.095965703E0,-1.001652600E1,-2.623882475E-1,1.007972130E1
1.228221133E1,7.244078927E-1,-1.042636670E1,-2.971106221E-1,1.045572398E1
1.229214633E1,3.508925442E-1,-1.039568986E1,-7.677761064E-1,1.042990764E1
1.230208133E1,3.836487194E-1,-1.029050430E1,-1.202120149E0,1.036758207E1
1.231201733E1,5.106803200E-1,-1.001561851E1,-1.433138523E0,1.013051304E1
1.232195233E1,2.544476556E-1,-9.790593676E0,-1.590000608E0,9.922125280E0
1.233188833E1,2.175800107E-2,-9.507496052E0,-1.956602318E0,9.706762963E0
1.234182333E1,7.519658200E-2,-8.879260093E0,-2.529958066E0,9.232962804E0
1.235175833E1,1.484002867E-1,-8.219721649E0,-3.147381646E0,8.802945976E0
1.236169433E1,3.929754303E-1,-7.490499598E0,-3.733260376E0,8.378499087E0
1.237162933E1,6.973114568E-1,-7.022714159E0,-4.002989802E0,8.113487831E0
1.238156533E1,8.234964171E-1,-6.503894223E0,-3.921985693E0,7.639421325E0
1.239150033E1,9.104939228E-1,-5.781792326E0,-3.862678846E0,7.012731961E0
1.240143533E1,9.694052052E-1,-5.492452215E0,-3.506908518E0,6.588261162E0
1.241137133E1,7.053130791E-1,-5.471889896E0,-2.798084771E0,6.186139666E0
1.242130633E1,5.796382883E-1,-5.214584341E0,-1.763722554E0,5.535213424E0
1.243124133E1,9.720496085E-1,-4.587991449E0,-1.199885489E0,4.840895699E0
1.244117733E1,1.673665201E0,-3.887174002E0,-1.989530329E0,4.676484561E0
1.245111233E1,2.062319393E0,-3.268947891E0,-3.806225441E0,5.424622908E0
1.246104833E1,2.096463331E0,-2.499194695E0,-5.561180388E0,6.447314164E0
1.247098333E1,2.123154409E0,-1.780466641E0,-7.071555367E0,7.595047163E0
1.248091833E1,2.296218251E0,-1.453029581E0,-8.819098091E0,9.228239505E0
1.249085433E1,2.506452551E0,-1.179557059E0,-1.082586016E1,1.117465469E1
1.250078933E1,2.422365789E0,-6.244264984E-1,-1.240764426E1,1.265730622E1
1.251072533E1,2.272600470E0,-2.394657004E-1,-1.315868988E1,1.335564211E1
1.252066033E1,2.269166693E0,-7.821644962E-2,-1.310023643E1,1.329554173E1
1.253059533E1,2.412331090E0,-3.436116278E-2,-1.225500504E1,1.249022300E1
1.254053133E1,2.716084296E0,-1.637442577E-1,-1.095306049E1,1.128598513E1
1.255046633E1,2.731720920E0,-3.504715812E-1,-9.389899775E0,9.785466125E0
1.256040133E1,2.262621320E0,-5.054841918E-1,-7.926596636E0,8.258686562E0
1.257033733E1,1.707886907E0,-6.502039486E-1,-6.619897134E0,6.867509078E0
1.258027233E1,1.262965544E0,-6.650108528E-1,-5.580691962E0,5.760333686E0
1.259020833E1,1.080483884E0,-5.063174200E-1,-4.892615597E0,5.036019275E0
1.260014333E1,1.004026569E0,-2.901446879E-1,-4.276788014E0,4.402632055E0
1.261007833E1,1.015849054E0,-3.918043792E-2,-3.575986354E0,3.717682452E0
1.262001433E1,9.056307936E-1,5.466678858E-2,-2.993375634E0,3.127851224E0
1.262994933E1,7.654522768E-1,9.081193686E-2,-2.597054865E0,2.709032663E0
1.263988433E1,7.569203120E-1,-2.233168602E-2,-2.334512544E0,2.454256686E0
1.264982033E1,5.714513093E-1,-5.110811466E-1,-2.031478254E0,2.171327804E0
1.265975533E1,2.635641226E-1,-1.190481412E0,-1.570941024E0,1.988609499E0
1.266969133E1,-4.861755162E-2,-1.754883903E0,-7.436218433E-1,1.906555697E0
1.267962633E1,-4.534436801E-1,-2.067667256E0,2.689134479E-1,2.133816650E0
1.268956133E1,-7.694909486E-1,-2.081946741E0,1.138452595E0,2.494532595E0
1.269949733E1,-9.356822661E-1,-1.831211702E0,1.861721304E0,2.773958150E0
1.270943217E1,-9.898982343E-1,-1.529279612E0,2.343243606E0,2.968060856E0
1.271936817E1,-8.054535176E-1,-1.416028985E0,2.286903344E0,2.807814161E0
1.272930317E1,-5.134504384E-1,-1.203045909E0,1.445098418E0,1.949169118E0
1.273923817E1,-4.193744396E-1,-1.001857252E0,4.099871734E-1,1.160897220E0
1.274917417E1,-5.032379839E-1,-1.418167312E0,2.242032981E-1,1.521418454E0
1.275910917E1,-3.963741244E-1,-1.997981894E0,1.083350481E0,2.307096088E0
1.276904417E1,-5.879376800E-1,-1.914588904E0,2.778909119E0,3.425442640E0
1.277898017E1,-4.825964355E-1,-2.050150752E0,3.996287139E0,4.517336419E0
1.278891517E1,-3.233289523E-1,-2.344765052E0,4.224334397E0,4.842258342E0
1.279885117E1,-5.442676038E-1,-2.018325527E0,3.792806373E0,4.330732656E0
1.280878617E1,-1.052949492E0,-1.516488828E0,2.871553574E0,3.413833757E0
1.281872117E1,-1.220164803E0,-1.335909267E0,2.036130883E0,2.723836392E0
1.282865717E1,-1.195168394E0,-1.384650487E0,1.991189184E0,2.703797113E0
1.283859217E1,4.005908440E-1,-1.329504812E0,5.862464606E0,6.024661594E0
1.284852717E1,1.237101409E0,-6.985867345E-1,8.666455942E0,8.782135385E0
1.285846317E1,-1.536110476E0,-8.244802111E-1,5.344335811E0,5.621505872E0
1.286839817E1,2.152292108E-1,-8.495261747E-1,5.682241141E0,5.749424555E0
1.287833417E1,-6.772086563E-1,-6.314466655E-2,3.774995170E0,3.835777280E0
1.288826917E1,-1.361908619E0,1.895877814E-1,2.195661052E0,2.590688339E0
1.289820417E1,-1.615792822E0,2.275677860E-2,9.749542129E-1,1.887283771E0
1.290814017E1,-1.694671469E0,-1.503248978E-1,7.379145223E-1,1.854461325E0
1.291807517E1,-1.989311058E0,-4.839132285E-1,9.422267622E-1,2.253735071E0
1.292801117E1,-2.371739281E0,-8.149913496E-1,9.768107039E-1,2.691378321E0
1.293794617E1,-2.472063614E0,-8.690447652E-1,4.886254996E-1,2.665537881E0
1.294788117E1,-2.263779361E0,-7.808044338E-1,-1.168934423E-1,2.397502166E0
1.295781717E1,-1.798404291E0,-5.813757885E-1,-5.049795771E-1,1.956338461E0
1.296775217E1,-1.280981693E0,-3.077471459E-1,-6.385849464E-1,1.464040005E0
1.297768717E1,-7.691753452E-1,-1.345847780E-1,-5.295560092E-1,9.434899792E-1
1.298762317E1,-2.420834988E-1,1.249666929E-2,-2.464917147E-1,3.457148429E-1
1.299755817E1,-1.267511170E-1,3.044873232E-1,-3.253934580E-1,4.633133693E-1
1.300749417E1,-4.359143123E-2,3.728705102E-1,-7.558578730E-2,3.829436532E-1
1.301742917E1,4.881986529E-3,3.968844402E-1,2.100676543E-1,4.490762875E-1
1.302736417E1,6.813409567E-2,3.734926540E-1,4.592309618E-1,5.958456963E-1
1.303730017E1,7.384999748E-1,4.915637255E-1,5.755969852E-1,1.057510756E0
1.304723517E1,4.070122562E-1,1.011743724E0,5.951740479E-1,1.242383390E0
1.305717117E1,1.288710250E-1,1.019829254E0,7.870925295E-1,1.294671425E0
1.306710617E1,5.022468808E-1,5.684429169E-1,7.309902495E-1,1.053435344E0
1.307704117E1,-9.361655384E-2,5.661227417E-1,4.369460535E-1,7.212356560E-1
1.308697717E1,-6.799307545E-1,4.523096126E-1,2.527622688E-1,8.548558832E-1
1.309691217E1,-8.747612956E-1,1.847053564E-1,8.624876976E-2,8.981994451E-1
1.310684717E1,-8.705328816E-1,8.750826001E-2,-3.176792264E-3,8.749258743E-1
1.311678317E1,-8.148210494E-1,1.370142961E-1,-1.064035374E-1,8.330834128E-1
1.312671817E1,-6.477074799E-1,1.077969289E-1,-5.938081384E-2,6.592960173E-1
1.313665417E1,-5.728100561E-1,1.603288990E-1,5.616250634E-3,5.948514592E-1
1.314658917E1,-6.116683124E-1,1.132857102E-1,-7.533084869E-2,6.266151237E-1
1.315652417E1,-5.137125398E-1,1.131442076E-1,4.773666859E-2,5.281864962E-1
1.316646017E1,-3.863394253E-1,1.858315301E-1,1.485964608E-1,4.537316578E-1
1.317639517E1,-2.469273323E-1,1.798305327E-1,1.722969800E-1,3.507112448E-1
1.318633017E1,-2.952048683E-1,1.885920006E-1,1.212063485E-1,3.706802340E-1
1.319626617E1,-3.922785884E-1,1.973294950E-1,4.808106959E-2,4.417388479E-1
1.320620117E1,-4.068659297E-1,1.921494466E-1,2.722814441E-2,4.507800643E-1
1.321613717E1,-4.156971256E-1,1.615287477E-1,4.869853556E-2,4.486281132E-1
1.322607217E1,-4.584736012E-1,7.694701910E-2,1.611890244E-1,4.920373851E-1
1.323600717E1,-3.561078586E-1,4.351556361E-2,2.497556305E-1,4.371318865E-1
1.324594317E1,-2.522187701E-1,1.133921295E-1,2.539586091E-1,3.754558005E-1
1.325587817E1,-2.692558023E-1,9.391797781E-2,2.001618862E-1,3.484021446E-1
1.326581417E1,-2.739430766E-1,6.054674864E-2,9.204394519E-2,2.952673464E-1
1.327574917E1,-1.975701079E-1,1.190060413E-1,-2.537340760E-2,2.320349008E-1
1.328568417E1,-1.181356832E-1,1.871483231E-1,-1.321880043E-1,2.577871272E-1
1.329562017E1,-1.480895072E-1,2.012097073E-1,-1.792031264E-1,3.074566782E-1
1.330555517E1,-2.135463090E-1,1.887375963E-1,-1.526000494E-1,3.232811182E-1
1.331549017E1,-2.578313662E-1,1.693979305E-1,-5.529477954E-2,3.134169506E-1
1.332542617E1,-3.511080506E-1,1.395420474E-1,5.179463625E-3,3.778566832E-1
1.333536117E1,-4.544248429E-1,8.407945275E-2,3.914710879E-2,4.637928291E-1
1.334529717E1,-4.312327391E-1,9.244915724E-2,4.234261215E-2,4.430591594E-1
1.335523217E1,-3.090563375E-1,1.298456097E-1,-3.608024418E-2,3.371609202E-1
1.336516717E1,-2.461473137E-1,1.902186960E-1,-1.843054068E-1,3.615800538E-1
1.337510317E1,-2.694218633E-1,2.158306700E-1,-2.870865941E-1,4.489874509E-1
1.338503817E1,-2.464917147E-1,1.945754564E-1,-2.279981411E-1,3.880733513E-1
1.339497417E1,-2.491852346E-1,1.584823483E-1,-1.296912432E-1,3.225364389E-1
1.340490917E1,-3.453003037E-1,1.518954599E-1,-1.142458230E-1,3.941530649E-1
1.341484417E1,-4.989139679E-1,1.284060252E-1,-1.603370851E-1,5.395472505E-1
1.342478017E1,-5.932590848E-1,8.855491161E-2,-1.342602575E-1,6.146740037E-1
1.343471517E1,-5.665536815E-1,8.172653317E-2,1.672303677E-4,5.724179664E-1
1.344465017E1,-5.219546288E-1,5.552515984E-2,9.919567466E-2,5.341904715E-1
1.345458617E1,-5.481837764E-1,4.083169162E-2,7.637574613E-2,5.549828235E-1
1.346452117E1,-5.388858265E-1,3.519848406E-2,5.864289522E-2,5.432088516E-1
1.347445717E1,-5.290250820E-1,7.637223780E-2,-4.730397463E-4,5.345095695E-1
1.348439217E1,-5.436325961E-1,7.179796100E-2,4.086443603E-2,5.498738482E-1
1.349432717E1,-4.676149920E-1,4.036157548E-2,1.333007294E-1,4.879158964E-1
1.350426317E1,-3.908773032E-1,8.709018409E-2,2.597958845E-1,4.773506760E-1
1.351419817E1,-3.764522222E-1,9.647964299E-2,1.458073390E-1,4.150715326E-1
1.352413417E1,-2.831844547E-1,1.833774537E-1,-1.007233182E0,1.062233218E0
1.353406917E1,2.586515844E-2,2.082053161E-1,-8.124261761E-1,8.390797052E-1
1.354400417E1,5.123008758E-2,1.305806047E-1,1.647803843E-1,2.163986859E-1
1.355394017E1,1.436924011E-2,1.430620712E-1,6.978002840E-1,7.124594498E-1
1.356387517E1,3.269821465E-2,1.798129910E-1,9.116364688E-1,9.297757451E-1
1.357381017E1,-1.583823609E-1,1.412313080E-1,9.665155113E-1,9.895370070E-1
1.358374617E1,-3.831613174E-1,1.224161375E-1,8.561545783E-1,9.459381417E-1
1.359368117E1,-5.550627333E-1,9.426998019E-2,5.926673466E-1,8.174570636E-1
1.360361717E1,-4.062432012E-1,4.333196104E-2,1.355150700E-2,4.087723581E-1
1.361355217E1,-3.344312069E-1,3.423954070E-2,-3.928311503E-1,5.170424460E-1