"Time (s)","Linear Acceleration x (m/s^2)","Linear Acceleration y (m/s^2)","Linear Acceleration z (m/s^2)","Absolute acceleration (m/s^2)"
4.175458336E-3,-5.312177879E-1,7.486108339E-1,-1.293679506E0,1.586258864E0
1.411045835E-2,-5.721792877E-1,3.917716348E-1,-1.452997422E0,1.609992440E0
2.404545835E-2,-5.886394921E-1,1.239182872E-1,-1.813379449E0,1.910548931E0
3.398145834E-2,-5.807755718E-1,1.081407452E-1,-2.192288963E0,2.270490164E0
4.391645835E-2,-6.585268754E-1,3.584547848E-1,-2.276401160E0,2.396695584E0
5.385145833E-2,-1.441122311E-1,5.910342193E-1,-2.187945067E0,2.270945486E0
6.378745835E-2,7.233654803E-1,5.555252481E-1,-1.961659575E0,2.163324804E0
7.372245836E-2,1.305205684E0,7.953762800E-1,-1.655260797E0,2.253014339E0
8.365845834E-2,1.575195019E0,8.399361563E-1,-1.323019665E0,2.221961550E0
9.359345835E-2,1.345842517E0,7.309715384E-1,-8.979943299E-1,1.775388771E0
1.035284583E-1,5.079505473E-1,6.528387040E-1,-8.896947920E-2,8.319421255E-1
1.134644584E-1,-3.133978951E-1,1.033246860E-1,5.528255886E-1,6.438247920E-1
1.233994583E-1,-3.698859452E-1,-6.565744901E-1,4.856200308E-1,8.965112870E-1
1.333344583E-1,2.258532362E-1,-1.299946844E0,3.088470072E-1,1.355085959E0
1.432704584E-1,1.028060672E0,-1.444471889E0,2.070405507E-1,1.785013606E0
1.532054583E-1,1.489865578E0,-1.095524677E0,8.495559955E-1,2.035096840E0
1.631414584E-1,1.389660089E0,-8.357679686E-1,1.731096261E0,2.371994419E0
1.730764583E-1,1.147195206E0,-1.159767304E0,2.947446340E0,3.368761934E0
1.830114583E-1,1.757202178E0,-1.113433090E0,2.646248660E0,3.366025061E0
1.929474583E-1,1.674846631E0,-5.181391744E-1,2.875220363E0,3.367561666E0
2.028824583E-1,1.060704215E0,-2.490346688E-1,2.607685688E0,2.826152216E0
2.128174583E-1,4.732251761E-1,-9.610602053E-1,2.404320112E0,2.632172865E0
2.227536667E-1,2.296908734E-1,-4.561971340E-1,1.613093017E0,1.692023287E0
2.326886667E-1,9.352469409E-1,4.986945511E-1,1.515014745E0,1.848959917E0
2.426246667E-1,1.360137790E0,1.132866896E0,2.270747488E0,2.879176334E0
2.525596667E-1,1.712406951E0,1.547102657E0,2.408571623E0,3.335728025E0
2.624946667E-1,2.072183353E0,1.668535000E0,2.249981101E0,3.484303065E0
2.724306667E-1,2.412239435E0,1.625026307E0,2.214193802E0,3.655443035E0
2.823656667E-1,2.495906513E0,1.545500958E0,2.295689371E0,3.726702593E0
2.923006667E-1,2.263639905E0,1.497025494E0,1.843202003E0,3.280631733E0
3.022366667E-1,3.071240520E-1,8.402283709E-1,1.449335895E0,1.703198002E0
3.121716667E-1,-1.812099786E0,-5.523005086E-1,1.352375026E0,2.327586668E0
3.221066667E-1,-2.112404303E0,-1.599210557E0,8.287276286E-1,2.776061208E0
3.320426667E-1,-5.983702091E-1,-1.672691055E0,8.315378004E-1,1.961478367E0
3.419776667E-1,4.811009371E-1,-9.712739754E-1,1.253134913E0,1.656857977E0
3.519136667E-1,1.081819096E0,-8.911010474E-2,2.086330399E0,2.351817956E0
3.618486667E-1,1.354557061E0,5.643454805E-1,3.027364914E0,3.364260539E0
3.717836667E-1,1.064587717E0,5.974056378E-1,3.386155913E0,3.599485015E0
3.817196667E-1,3.325163168E-1,3.033944786E-2,2.923915974E0,2.942918995E0
3.916546667E-1,-1.170951895E-1,4.290295082E-1,1.879685705E0,1.931578616E0
4.015896667E-1,-6.420719334E-1,1.916819910E0,6.298971534E-2,2.022479329E0
4.115256667E-1,-1.139143517E0,1.666323437E0,5.026178867E-1,2.080121748E0
4.214606667E-1,-7.077720525E-1,-6.519089967E-2,2.365054305E0,2.469549149E0
4.313966667E-1,-7.136095472E-1,-4.574580860E-1,4.186242126E0,4.271197680E0
4.413316667E-1,-7.370121507E-1,-2.830081612E-2,5.892820426E0,5.938797894E0
4.512666667E-1,-6.250283231E-1,-3.642593157E-1,6.758647469E0,6.797253920E0
4.612026667E-1,-8.559633744E-1,-9.935919204E-1,7.236907024E0,7.354775420E0
4.711376667E-1,-1.152269566E0,-1.748259008E0,7.500335784E0,7.787115742E0
4.810726667E-1,-6.336069193E-1,-2.263848358E0,6.925917597E0,7.314014061E0
4.910086667E-1,6.880067825E-2,-2.328657142E0,6.594292762E0,6.993716798E0
5.009436667E-1,-4.177813657E-2,-2.687625312E0,6.980285593E0,7.479937312E0
5.108786667E-1,-4.307537059E-1,-3.618202082E0,7.057839553E0,7.942923531E0
5.208146667E-1,-8.364412755E-1,-4.609377056E0,6.961708404E0,8.391148596E0
5.307496667E-1,-1.116230544E0,-5.420778800E0,6.383461461E0,8.448632650E0
5.406856667E-1,-1.286231177E0,-6.087205848E0,5.297691402E0,8.171535955E0
5.506206667E-1,-1.358844970E0,-6.590886174E0,4.164344888E0,7.913785981E0
5.605556667E-1,-1.507634389E0,-7.132033703E0,3.365800002E0,8.029164082E0
5.704916667E-1,-1.531212556E0,-7.711953535E0,2.933378524E0,8.391873973E0
5.804266667E-1,-1.555001806E0,-8.239603352E0,3.169352267E0,8.964033010E0
5.903616667E-1,-1.731244195E0,-8.834365756E0,3.257699018E0,9.573705012E0
6.002976667E-1,-2.208981741E0,-9.847502872E0,3.229685592E0,1.059640421E1
6.102326667E-1,-2.401222258E0,-1.065710718E1,2.201061248E0,1.114380870E1
6.201686667E-1,-2.134796800E0,-1.111623757E1,1.288184878E0,1.139243237E1
6.301036667E-1,-1.470619029E0,-1.114831774E1,8.551359934E-1,1.127736522E1
6.400386667E-1,-1.382016317E0,-1.139868031E1,2.123559621E-1,1.148411846E1
6.499746667E-1,-1.391881008E0,-1.198980457E1,-3.206925890E-1,1.207458447E1
6.599096667E-1,-1.136968572E0,-1.254096312E1,-6.711621237E-1,1.261027010E1
6.698446667E-1,-9.500528218E-1,-1.282968226E1,-9.251821285E-1,1.289803509E1
6.797806667E-1,-1.016322533E0,-1.302528098E1,-1.184165835E0,1.311842615E1
6.897156667E-1,-1.813006689E0,-1.366613230E1,-1.520792379E0,1.386949800E1
6.996516667E-1,-2.340115784E0,-1.431057382E1,-2.072336989E0,1.464797752E1
7.095866667E-1,-2.881550558E0,-1.524921566E1,-2.463226132E0,1.571335084E1
7.195216667E-1,-3.141792585E0,-1.594435370E1,-2.374404734E0,1.642349151E1
7.294576667E-1,-1.932261529E0,-1.511554831E1,-2.834164138E0,1.549986844E1
7.393926667E-1,-2.340032315E-1,-1.347529907E1,-4.365766849E0,1.416680495E1
7.493276667E-1,1.331449596E0,-1.153298734E1,-6.459347211E0,1.328554558E1
7.592636667E-1,3.185149105E0,-9.485915149E0,-7.996017119E0,1.280874899E1
7.691986667E-1,5.792053020E0,-7.916207303E0,-9.091323402E0,1.337409352E1
7.791346667E-1,8.215749051E0,-6.196292088E0,-9.525159321E0,1.402216917E1
7.890696667E-1,1.053591077E1,-4.135005314E0,-9.811032618E0,1.497865300E1
7.990046667E-1,1.339844209E1,-2.490610397E0,-1.024976324E1,1.705224434E1
8.089406667E-1,1.499759827E1,-1.546180989E0,-1.054704504E1,1.839996708E1
8.188756667E-1,1.504466836E1,-1.275694056E0,-1.044978947E1,1.836212246E1
8.288106667E-1,1.435599967E1,-1.996216912E0,-1.129374851E1,1.837466636E1
8.387466667E-1,1.291071297E1,-3.479935020E0,-1.233532356E1,1.819221439E1
8.486816667E-1,1.124281108E1,-5.230550163E0,-1.198657691E1,1.724637591E1
8.586166667E-1,9.645812523E0,-6.792064891E0,-1.031221034E1,1.566893509E1
8.685526667E-1,8.682281431E0,-8.034029283E0,-8.443312744E0,1.453331234E1
8.784876667E-1,8.304309810E0,-8.400072584E0,-6.823011280E0,1.364097738E1
8.884236667E-1,8.283575583E0,-8.210869550E0,-5.534299568E0,1.290985960E1
8.983586667E-1,8.364303997E0,-7.767808478E0,-4.568285748E0,1.229510734E1
9.082936667E-1,8.043785362E0,-7.909980603E0,-4.977758074E0,1.233078876E1
9.182296667E-1,7.596135980E0,-7.993285884E0,-6.441692712E0,1.277064235E1
9.281646667E-1,7.154706282E0,-8.153077424E0,-7.299115552E0,1.307438646E1
9.380996667E-1,6.982526246E0,-8.999622104E0,-7.242397560E0,1.349819222E1
9.480356667E-1,7.691680069E0,-9.712750279E0,-6.434808201E0,1.396088166E1
9.579706667E-1,9.713488782E0,-1.036611816E1,-3.517321240E0,1.463488362E1
9.679066667E-1,1.113054571E1,-1.115002044E1,3.317125440E-3,1.575474578E1
9.778416667E-1,1.144679003E1,-1.204452516E1,2.485430641E0,1.680109977E1
9.877766667E-1,1.200562831E1,-1.208205609E1,3.959720114E0,1.748686861E1
9.977126667E-1,1.344866383E1,-1.117123063E1,4.322115045E0,1.800954278E1
1.007647667E0,1.592458310E1,-9.965105581E0,4.133789093E0,1.923496525E1
1.017582667E0,1.735279943E1,-9.883607090E0,4.523515956E0,2.047602339E1
1.027518667E0,1.678027399E1,-1.094087723E1,5.948029836E0,2.089639799E1
1.037453667E0,1.450200348E1,-1.295538102E1,8.827530946E0,2.135591967E1
1.047388667E0,9.983454144E0,-1.518439108E1,1.209149584E1,2.182749094E1
1.057324667E0,5.754403383E0,-1.582898229E1,1.467570788E1,2.233934288E1
1.067259667E0,2.573008191E0,-1.494246604E1,1.740434030E1,2.308264985E1
1.077195667E0,-5.892391241E-1,-1.280867906E1,1.895197783E1,2.288202189E1
1.087130667E0,-1.886244527E0,-1.059633707E1,1.787900323E1,2.086861362E1
1.097065667E0,-1.790941343E0,-9.457609363E0,1.409390174E1,1.706727605E1
1.107001667E0,-7.982332295E-1,-8.185839958E0,9.505936015E0,1.257012218E1
1.116936667E0,5.338636529E-1,-6.375710977E0,5.228402481E0,8.262620248E0
1.126871667E0,2.505350059E0,-4.440627581E0,2.181263746E0,5.545616626E0
1.136807667E0,4.510607643E0,-2.429365491E0,1.476094216E0,5.331627531E0
1.146742667E0,5.883326887E0,-8.752509999E-1,1.755031253E0,6.201591269E0
1.156678667E0,6.547601575E0,7.574775517E-2,2.294236922E0,6.938324522E0
1.166613667E0,6.308330587E0,1.360816652E-1,2.883905232E0,6.937612154E0
1.176548667E0,5.350718631E0,-5.319732481E-1,3.482477682E0,6.406312216E0
1.186484667E0,4.107698817E0,-1.743640292E0,4.032292539E0,6.014387264E0
1.196419667E0,3.132770332E0,-2.855662011E0,4.419541937E0,6.123839188E0
1.206354667E0,2.514184032E0,-3.261420770E0,4.185397203E0,5.871587224E0
1.216290667E0,2.649437147E0,-3.159275760E0,3.555488355E0,5.444450199E0
1.226224958E0,3.703235216E0,-2.797794456E0,3.129878883E0,5.598012746E0
1.236160958E0,5.033568578E0,-2.091226857E0,3.534441887E0,6.496331415E0
1.246095958E0,5.537626049E0,-1.710925705E0,3.979155967E0,7.030380590E0
1.256030958E0,5.026908014E0,-2.380893243E0,4.059396138E0,6.886011460E0
1.265966958E0,3.887560503E0,-3.765575890E0,3.852416983E0,6.643327860E0
1.275901958E0,2.488672045E0,-4.762629070E0,3.254608764E0,6.282404190E0
1.285836958E0,1.104270650E0,-5.057314121E0,2.363244592E0,5.690409896E0
1.295772958E0,3.443939853E-1,-4.943679332E0,1.597580938E0,5.206806834E0
1.305707958E0,6.104130614E-1,-4.278773144E0,1.571413479E0,4.598895959E0
1.315643958E0,1.451095907E0,-3.431567144E0,2.134078031E0,4.293672256E0
1.325578958E0,1.908336477E0,-3.018967143E0,2.776042814E0,4.523530084E0
1.335513958E0,1.419219519E0,-3.132003177E0,2.797109163E0,4.432544146E0
1.345449958E0,8.623280686E-1,-3.572568072E0,1.268844042E0,3.888035176E0
1.355384958E0,3.923662966E-1,-4.397790880E0,-1.989420108E-1,4.419739116E0
1.365319958E0,-7.727300137E-2,-4.771675297E0,-4.355650873E-1,4.792136601E0
1.375255958E0,-5.123061383E-1,-4.901648961E0,-5.527959140E-1,4.959254323E0
1.385190958E0,-6.057887909E-1,-5.241099125E0,-1.119546647E0,5.393466862E0
1.395125958E0,-5.164158538E-1,-5.290128028E0,-1.681988420E0,5.575053806E0
1.405061958E0,-1.187943721E-1,-5.000395569E0,-1.792346429E0,5.313245117E0
1.414996958E0,1.762555450E-2,-5.055160006E0,-1.829678416E0,5.376120949E0
1.424932958E0,-3.473772347E-2,-5.351068879E0,-2.079504067E0,5.741034926E0
1.434867958E0,-2.938184935E-1,-5.584182165E0,-1.758478187E0,5.861882401E0
1.444802958E0,-1.180338247E0,-6.139185841E0,-2.005568364E0,6.565447862E0
1.454738958E0,-1.435156397E0,-7.083424630E0,-3.253931949E0,7.926074155E0
1.464673958E0,-1.600184703E0,-7.750791326E0,-4.026608168E0,8.879692033E0
1.474608958E0,-1.361155205E0,-8.146799269E0,-3.648099480E0,9.029491217E0
1.484544958E0,-8.869249660E-1,-8.116722361E0,-3.066459690E0,8.721868654E0
1.494479958E0,-2.097542435E-1,-7.823686225E0,-3.196167305E0,8.453966432E0
1.504415958E0,5.388712084E-1,-7.829203658E0,-3.631568817E0,8.647259922E0
1.514350958E0,9.781964940E-1,-7.774358529E0,-4.318614025E0,8.946951772E0
1.524285958E0,1.140752597E0,-7.776616724E0,-5.168994770E0,9.407209527E0
1.534221958E0,1.356149404E0,-8.259345306E0,-6.017847930E0,1.030875452E1
1.544156958E0,1.452298679E0,-8.724545106E0,-6.559343954E0,1.101144186E1
1.554091958E0,2.628358519E0,-8.566112459E0,-7.127951177E0,1.144963926E1
1.564027958E0,4.712968082E0,-7.329143343E0,-7.609385186E0,1.156854153E1
1.573962958E0,6.978000501E0,-5.519762220E0,-8.484118123E0,1.229392233E1
1.583898958E0,9.438618776E0,-3.867509523E0,-9.560562458E0,1.398032578E1
1.593833958E0,1.149187206E1,-2.524466068E0,-1.047643290E1,1.575410101E1
1.603768958E0,1.342389502E1,-1.532383607E0,-1.192972326E1,1.802407984E1
1.613704958E0,1.518501089E1,-9.553694757E-1,-1.307841346E1,2.006345397E1
1.623639958E0,1.593188978E1,-1.248943336E0,-1.269447358E1,2.040918006E1
1.633574958E0,1.528497138E1,-2.861026539E0,-1.166330073E1,1.943832315E1
1.643510958E0,1.411767184E1,-4.684905248E0,-9.892928721E0,1.786412701E1
1.653445958E0,1.224310362E1,-6.160881935E0,-7.971146572E0,1.585525875E1
1.663380958E0,1.048331858E1,-7.816021110E0,-7.205971745E0,1.493037786E1
1.673316958E0,8.670379423E0,-8.868229321E0,-6.573938019E0,1.403700936E1
1.683251958E0,7.712019024E0,-9.316259356E0,-6.176699823E0,1.358011585E1
1.693187958E0,7.329590070E0,-9.583639664E0,-6.636484516E0,1.376996611E1
1.703122958E0,6.849924844E0,-9.974058838E0,-6.536296569E0,1.375232682E1
1.713057958E0,6.154645295E0,-1.071448942E1,-5.676986833E0,1.359809257E1
1.722993958E0,6.390999691E0,-1.166567353E1,-4.495221280E0,1.404064921E1
1.732928958E0,6.964810352E0,-1.296803674E1,-2.492071617E0,1.492946687E1
1.742864958E0,7.371412280E0,-1.468194569E1,-3.002422446E-1,1.643129312E1
1.752799958E0,8.272208011E0,-1.580363227E1,1.669356680E0,1.791566270E1
1.762734958E0,1.070351770E1,-1.572873646E1,3.073570781E0,1.927187793E1
1.772670958E0,1.319847550E1,-1.545929559E1,4.113329685E0,2.073907078E1
1.782605958E0,1.691796422E1,-1.445628527E1,5.233815249E0,2.286032632E1
1.792540958E0,2.034183643E1,-1.292749214E1,6.979860501E0,2.509240553E1
1.802476958E0,2.159942985E1,-1.233334837E1,8.625889129E0,2.632589628E1
1.812411958E0,2.038843874E1,-1.334350984E1,1.031104440E1,2.645855865E1
1.822346958E0,1.718553281E1,-1.452950644E1,1.196104797E1,2.548559915E1
1.832282958E0,1.229391241E1,-1.540364062E1,1.322839454E1,2.373610854E1
1.842217958E0,6.614280884E0,-1.623208817E1,1.431829799E1,2.263278717E1
1.852153958E0,3.170781326E-1,-1.637610041E1,1.522938190E1,2.236540356E1
1.862088958E0,-3.879915268E0,-1.477912174E1,1.579433052E1,2.197582896E1
1.872023958E0,-5.421793876E0,-1.206038280E1,1.467949571E1,1.975692983E1
1.881959958E0,-4.676096710E0,-9.792201076E0,1.148332928E1,1.579936498E1
1.891894958E0,-1.949994965E0,-7.253295016E0,8.045509706E0,1.100649787E1
1.901829958E0,1.014412978E0,-4.133279216E0,5.465960820E0,6.927464071E0
1.911765958E0,3.537609909E0,-1.614463604E0,3.745174662E0,5.398843380E0
1.921700958E0,4.992305946E0,-4.867865503E-1,2.333481680E0,5.532198167E0
1.931636958E0,5.537551205E0,-1.988199502E-1,1.441720482E0,5.725605703E0
1.941571958E0,5.499943083E0,-2.292348272E-1,1.440720608E0,5.690131667E0
1.951506958E0,4.780902203E0,-7.533593577E-1,1.990841567E0,5.233357082E0
1.961442958E0,3.934869155E0,-1.903111989E0,2.696496415E0,5.135769021E0
1.971377958E0,3.322831737E0,-2.982237858E0,3.137231465E0,5.456846585E0
1.981312958E0,2.966279637E0,-3.569626338E0,3.037979657E0,5.547104422E0
1.991248958E0,2.903305124E0,-3.658425078E0,2.591598244E0,5.341314085E0
2.001183958E0,3.074032711E0,-3.438584973E0,1.878075674E0,4.980031321E0
2.011119958E0,3.613659965E0,-3.115807559E0,1.406012997E0,4.974300718E0
2.021054958E0,4.133012583E0,-2.621396239E0,1.644302238E0,5.163065088E0
2.030989958E0,4.438707356E0,-2.543399060E0,2.603000314E0,5.739913972E0
2.040925958E0,4.328389692E0,-2.816872167E0,3.796070874E0,6.409358799E0
2.050860958E0,4.090498062E0,-3.064835626E0,4.830238670E0,7.032538476E0
2.060795958E0,3.968250909E0,-3.568801880E0,5.471271261E0,7.643178092E0
2.070731958E0,3.896058846E0,-4.237794102E0,5.817886019E0,8.184495776E0
2.080666958E0,3.966684440E0,-4.826204091E0,5.456707016E0,8.294726207E0
2.090601958E0,3.807600998E0,-5.249724353E0,4.335697542E0,7.801006622E0
2.100537958E0,3.315357826E0,-5.480435017E0,2.838793963E0,7.006105670E0
2.110472958E0,2.316334135E0,-5.464835231E0,1.459849774E0,6.112363641E0
2.120408958E0,1.402110858E0,-5.199975073E0,3.139697528E-1,5.394833883E0
2.130343958E0,1.409545008E0,-4.785413330E0,-1.623736703E-1,4.991328789E0
2.140278958E0,1.743185379E0,-4.252392261E0,9.610191286E-2,4.596821813E0
2.150214958E0,2.451495448E0,-3.971217202E0,5.170738848E-1,4.695504382E0
2.160149958E0,3.302078800E0,-3.820459610E0,5.791228563E-1,5.082816081E0
2.170084958E0,4.060115930E0,-3.802436153E0,4.478323996E-1,5.580646550E0
2.180020958E0,2.985428098E0,-3.831945881E0,-6.338166882E-1,4.898807381E0
2.189955958E0,2.072682413E0,-4.697659487E0,-2.080628779E0,5.540129345E0
2.199891958E0,1.606973906E0,-5.298493055E0,-3.747940688E0,6.686064103E0
2.209826958E0,1.283630481E0,-5.407954686E0,-4.991861558E0,7.470767224E0
2.219761958E0,8.480322111E-1,-5.343007908E0,-5.344531692E0,7.604663776E0
2.229698792E0,5.593773937E-1,-5.734345679E0,-4.705949669E0,7.439192546E0
2.239633792E0,3.273429197E-1,-6.358659911E0,-3.669888545E0,7.348999332E0
2.249568792E0,2.473962790E-1,-6.871809218E0,-2.663006488E0,7.373911472E0
2.259504792E0,9.599099118E-1,-6.740620503E0,-2.064787210E0,7.114825228E0
2.269439792E0,1.825810629E0,-5.696652188E0,-2.328347824E0,6.419239378E0
2.279375792E0,2.556050681E0,-4.908739879E0,-3.715858769E0,6.666087959E0
2.289310792E0,2.820593920E0,-5.115290433E0,-5.633018695E0,8.114976641E0
2.299245792E0,2.296078795E0,-5.708722011E0,-7.050253376E0,9.357753870E0
2.309181792E0,1.317226244E0,-6.556900987E0,-7.494038333E0,1.004433403E1
2.319116792E0,3.979486334E-1,-7.607944432E0,-7.267606661E0,1.052887877E1
2.329051792E0,-6.948234665E-1,-8.950650503E0,-7.198738739E0,1.150733520E1
2.338987792E0,-1.416580378E0,-9.873003749E0,-7.249534087E0,1.233039527E1
2.348922792E0,-1.161175752E0,-9.995815158E0,-7.396695056E0,1.248902508E1
2.358858792E0,2.869866067E-1,-9.608100321E0,-7.542398314E0,1.221825378E1
2.368793792E0,3.499925773E0,-7.991515932E0,-7.782028906E0,1.169075623E1
2.378728792E0,7.784131565E0,-4.957670549E0,-8.204459832E0,1.234845588E1
2.388664792E0,1.142144586E1,-1.927346652E0,-8.491597881E0,1.436214904E1
2.398599792E0,1.437603223E1,4.519098824E-1,-8.618944391E0,1.676784803E1
2.408534792E0,1.599300955E1,1.349633559E0,-8.495875704E0,1.815978440E1
2.418470792E0,1.677137570E1,9.866878206E-1,-7.716997928E0,1.848795967E1
2.428405792E0,1.600586641E1,1.141221544E-1,-6.958117045E0,1.745325689E1
2.438340792E0,1.357108581E1,-1.527377513E0,-6.977977113E0,1.533621260E1
2.448276792E0,1.028818179E1,-3.551638256E0,-7.386028565E0,1.315348763E1
2.458211792E0,7.611161571E0,-5.202503994E0,-7.142914787E0,1.166263520E1
2.468147792E0,7.049659299E0,-5.375027261E0,-4.709422331E0,1.003829034E1
2.478082792E0,7.860683897E0,-4.216248282E0,-1.867319136E0,9.113395726E0
2.488017792E0,8.752043391E0,-3.335990896E0,-7.197456153E-1,9.393888042E0
2.497953792E0,9.433294301E0,-2.611319440E0,-1.346453551E0,9.880231159E0
2.507888792E0,9.711614749E0,-2.682547590E0,-3.113803718E0,1.054548701E1
2.517823792E0,8.240564634E0,-3.552658303E0,-4.582497990E0,1.007608924E1
2.527759792E0,5.395362123E0,-5.657043149E0,-5.443058445E0,9.525699705E0
2.537694792E0,3.228616721E0,-8.208214914E0,-5.767981203E0,1.053889772E1
2.547630792E0,2.108615892E0,-1.014725570E1,-5.081519254E0,1.154274219E1
2.557565792E0,3.312573382E0,-1.094372600E1,-4.171883118E0,1.217139638E1
2.567500792E0,6.264172999E0,-1.099484236E1,-3.015951441E0,1.300855045E1
2.577436792E0,9.490860139E0,-1.162317947E1,-1.240714842E0,1.505702828E1
2.587371792E0,1.302415363E1,-1.235610691E1,7.843130556E-1,1.796989434E1
2.597306792E0,1.562311937E1,-1.284205847E1,2.725671390E0,2.040660700E1
2.607242792E0,1.775847575E1,-1.357631907E1,4.612135772E0,2.282436629E1
2.617177792E0,2.043755769E1,-1.425621343E1,6.599472225E0,2.577763409E1
2.627113792E0,2.191046664E1,-1.493479216E1,9.379141483E0,2.812623082E1
2.637048792E0,2.043797401E1,-1.655403820E1,1.338597817E1,2.951154645E1
2.646983792E0,1.742654101E1,-1.673434996E1,1.756973113E1,2.987337029E1
2.656919792E0,1.428332930E1,-1.384409465E1,1.960584740E1,2.792958476E1
2.666854792E0,1.083703068E1,-1.071109569E1,1.905411115E1,2.439729404E1
2.676789792E0,7.196231453E0,-9.009391047E0,1.645271999E1,2.009096486E1
2.686725792E0,3.894678611E0,-8.019570288E0,1.265657193E1,1.548130621E1
2.696660792E0,2.270290235E0,-6.990126457E0,8.651347906E0,1.135173582E1
2.706596792E0,1.882998152E0,-5.913450572E0,5.659876710E0,8.399332360E0
2.716531792E0,2.393609183E0,-4.904650337E0,3.870250990E0,6.690575653E0
2.726466792E0,2.802668695E0,-3.595770409E0,2.803081509E0,5.351801808E0
2.736402792E0,2.751800258E0,-2.630073507E0,2.494394131E0,4.551010151E0
2.746337792E0,2.868648092E0,-2.224534603E0,2.743543113E0,4.550244487E0
2.756272792E0,2.953931487E0,-2.333250715E0,2.902444122E0,4.753309584E0
2.766208792E0,3.406325884E0,-2.261240500E0,2.767016760E0,4.936866048E0
2.776143792E0,3.238366953E0,-2.156612177E0,2.367966803E0,4.554696849E0
2.786078792E0,2.716875424E0,-2.510580393E0,2.299022722E0,4.355448479E0
2.796014792E0,2.226630245E0,-2.798052903E0,2.664223293E0,4.459267659E0
2.805949792E0,1.953386934E0,-2.777854866E0,3.235720503E0,4.690638054E0
2.815885792E0,1.793424656E0,-2.724234145E0,3.725231856E0,4.951280244E0
2.825820792E0,2.349501296E0,-2.814632099E0,3.397331697E0,4.998417034E0
2.835755792E0,2.677539450E0,-2.661801084E0,2.546600411E0,4.554072482E0
2.845691792E0,2.221250807E0,-2.746760543E0,1.732130048E0,3.934326262E0
2.855626792E0,2.318438548E0,-3.100875524E0,1.448780994E0,4.133951220E0
2.865561792E0,2.498769017E0,-3.198375506E0,1.515986552E0,4.332628268E0
2.875497792E0,2.515579178E0,-3.081344070E0,1.747621661E0,4.344767122E0
2.885432792E0,2.325194421E0,-2.956381470E0,2.022353089E0,4.270437039E0
2.895368792E0,1.705540420E0,-3.004297063E0,2.339352869E0,4.172198559E0
2.905303792E0,9.580113208E-1,-3.494822323E0,2.549879529E0,4.430965400E0
2.915238792E0,1.856341866E-1,-3.975192139E0,2.501574512E0,4.700477383E0
2.925174792E0,-1.572766525E-1,-4.312905096E0,2.695304461E0,5.088275980E0
2.935109792E0,-3.101655543E-1,-4.468585458E0,2.656702312E0,5.207929132E0
2.945044792E0,-6.123148683E-1,-4.767926647E0,1.985738994E0,5.201078096E0
2.954980792E0,-6.993375170E-1,-5.113033993E0,1.632667156E0,5.412743446E0
2.964915792E0,-3.503438196E-1,-5.137606332E0,9.624680686E-1,5.238710184E0
2.974851792E0,2.999592394E-1,-4.933339700E0,5.134486111E-1,4.969048764E0
2.984786792E0,1.038540344E0,-4.459045726E0,5.996421978E-2,4.578782648E0
2.994721792E0,1.246801209E0,-4.176239294E0,-6.747045131E-1,4.410296370E0
3.004657792E0,8.557201302E-1,-4.161752232E0,-1.452491637E0,4.490230567E0
3.014592792E0,3.556872976E-1,-4.503944156E0,-2.415471922E0,5.123136834E0
3.024527792E0,-6.945615113E-2,-5.022857063E0,-3.136963370E0,5.922369156E0
3.034463792E0,-3.477730912E-1,-5.627027637E0,-3.003734561E0,6.388020622E0
3.044398792E0,-1.035726664E0,-6.143384727E0,-2.021231593E0,6.549754406E0
3.054334792E0,-1.231364560E0,-6.808411367E0,-1.782144792E0,7.144701819E0
3.064269792E0,-5.766097230E-1,-7.607167922E0,-1.833398415E0,7.846198590E0
3.074204792E0,2.361988610E-1,-7.227989436E0,-1.986928318E0,7.499833686E0
3.084140792E0,1.084028174E0,-6.108478603E0,-2.931526710E0,6.861667201E0
3.094075792E0,1.959746951E0,-5.258229128E0,-4.825529323E0,7.401034719E0
3.104010792E0,2.628224033E0,-4.761181299E0,-6.851628723E0,8.747641115E0
3.113946792E0,2.671154290E0,-4.658110675E0,-7.979114572E0,9.617657181E0
3.123881792E0,2.380562875E0,-5.185314349E0,-7.904785352E0,9.748856136E0
3.133817792E0,1.624816099E0,-6.205702012E0,-7.184112514E0,9.631315457E0
3.143752792E0,1.131495286E0,-7.346186807E0,-6.588232707E0,9.932348785E0
3.153687792E0,1.441104770E0,-7.714974207E0,-6.377155824E0,1.011265180E1
3.163623792E0,2.251684980E0,-7.191606306E0,-6.562903739E0,9.993047182E0
3.173558792E0,3.452235298E0,-6.388136310E0,-6.924137120E0,1.003343854E1
3.183493792E0,5.343101463E0,-5.242483746E0,-7.439929368E0,1.055390535E1
3.193429792E0,7.062809687E0,-3.831935356E0,-7.835838493E0,1.122351879E1
3.203364792E0,7.785478764E0,-2.708707741E0,-8.368196488E0,1.174638198E1
3.213299792E0,8.005431136E0,-2.175431440E0,-9.415628693E0,1.254884430E1
3.223235792E0,7.707953455E0,-2.293099931E0,-1.035217605E1,1.310871477E1
3.233169583E0,7.488710350E0,-2.472889826E0,-1.042911489E1,1.307525924E1
3.243105583E0,7.444793082E0,-2.662209805E0,-9.704572363E0,1.251762876E1
3.253040583E0,8.089498894E0,-3.193055710E0,-7.890288935E0,1.174275337E1
3.262975583E0,8.824067640E0,-3.063039946E0,-5.394532403E0,1.078644349E1
3.272911583E0,8.995437836E0,-2.932087751E0,-4.150731400E0,1.033168000E1
3.282846583E0,8.732893760E0,-2.963076824E0,-4.038002345E0,1.006721017E1
3.292781583E0,7.922701221E0,-3.484796395E0,-4.381461360E0,9.701041398E0
3.302717583E0,6.970245924E0,-3.892446436E0,-4.844537451E0,9.338362309E0
3.312652583E0,6.127098477E0,-3.894222236E0,-5.353636976E0,9.020406390E0
3.322588583E0,5.699700342E0,-4.117941384E0,-6.026618754E0,9.260894062E0
3.332523583E0,5.856159554E0,-3.991028446E0,-5.809637936E0,9.163776826E0
3.342458583E0,5.910042230E0,-4.321543772E0,-3.721143775E0,8.212871041E0
3.352394583E0,5.979408919E0,-5.465630452E0,-1.208930401E0,8.190724020E0
3.362329583E0,5.771532801E0,-6.782200053E0,6.493264277E-1,8.929191075E0
3.372264583E0,5.831591892E0,-7.737566679E0,1.596357408E0,9.819661862E0
3.382200583E0,6.180525656E0,-8.034675985E0,1.929621803E0,1.031883501E1
3.392135583E0,6.637973801E0,-7.968215947E0,1.697008747E0,1.050880584E1
3.402071583E0,8.013059413E0,-7.239536517E0,1.083564489E0,1.085330006E1
3.412006583E0,1.017797698E1,-6.581774458E0,2.063897556E-1,1.212244064E1
3.421941583E0,1.216867324E1,-6.967014753E0,-2.520857459E-1,1.402424508E1
3.431877583E0,1.402880819E1,-7.347480796E0,-4.471728337E-1,1.584275534E1
3.441812583E0,1.620619670E1,-8.495721338E0,-1.206496936E-1,1.829843296E1
3.451747583E0,1.756829857E1,-1.158898496E1,1.702558925E0,2.111512239E1
3.461683583E0,1.599399422E1,-1.527353773E1,5.089186708E0,2.269336087E1
3.471618583E0,1.372554118E1,-1.681878843E1,8.791197517E0,2.342108620E1
3.481554583E0,1.143331687E1,-1.625837140E1,1.112924178E1,2.277971462E1
3.491489583E0,8.709390877E0,-1.511739720E1,1.209486734E1,2.122910746E1
3.501424583E0,6.346935074E0,-1.347073707E1,1.253414761E1,1.946404886E1
3.511360583E0,4.113217126E0,-1.073385306E1,1.288884439E1,1.727010325E1
3.521295583E0,2.262314925E0,-7.770110527E0,1.245595162E1,1.485407073E1
3.531230583E0,1.511381870E0,-5.339679673E0,1.074019027E1,1.208917454E1
3.541166583E0,1.747128741E0,-3.719006326E0,8.637987603E0,9.565474202E0
3.551101583E0,2.137226903E0,-2.832956688E0,6.514168366E0,7.418070634E0
3.561037583E0,2.516756807E0,-2.226831390E0,4.889861559E0,5.933261239E0
3.570972583E0,3.049075333E0,-1.646564818E0,3.826771095E0,5.162578145E0
3.580907583E0,2.953842901E0,-1.352365671E0,3.087299459E0,4.481684811E0
3.590843583E0,2.484364402E0,-1.425263493E0,2.812406064E0,4.014108914E0
3.600778583E0,2.242791950E0,-1.707506254E0,2.768489381E0,3.950977953E0
3.610713583E0,1.852275127E0,-2.094412420E0,2.718298051E0,3.899568031E0
3.620649583E0,1.837041084E0,-2.181387414E0,2.538097975E0,3.817736545E0
3.630584583E0,2.125692685E0,-2.026939060E0,2.377439877E0,3.778792362E0
3.640520583E0,2.432386748E0,-1.964549269E0,2.213471087E0,3.830850215E0
3.650455583E0,2.818797947E0,-1.951464955E0,1.978459210E0,3.958299911E0
3.660390583E0,3.523430118E0,-1.858309454E0,1.942595898E0,4.431879133E0
3.670326583E0,4.710376012E0,-1.395784171E0,2.061123052E0,5.327671523E0
3.680261583E0,5.965469742E0,-8.549032742E-1,2.187838647E0,6.411265616E0
3.690196583E0,6.642395466E0,-6.397929811E-1,2.353686149E0,7.076057594E0
3.700132583E0,6.398171886E0,-9.419039959E-1,2.628122876E0,6.980746126E0
3.710067583E0,5.531440279E0,-1.629884466E0,2.869889748E0,6.441243832E0
3.720003583E0,4.554444219E0,-2.316182692E0,3.228141342E0,6.043886244E0
3.729938583E0,3.737139711E0,-2.843564706E0,3.640721171E0,5.941962984E0
3.739873583E0,3.229411942E0,-3.252568671E0,3.729354436E0,5.909009135E0
3.749809583E0,2.871195139E0,-3.710832503E0,3.826551532E0,6.054464140E0
3.759744583E0,2.912303404E0,-3.892091510E0,4.129883738E0,6.378544280E0
3.769679583E0,3.349849382E0,-3.474181652E0,4.281582731E0,6.451618380E0
3.779615583E0,3.532438046E0,-3.327833446E0,4.020306916E0,6.302020445E0
3.789550583E0,3.482718002E0,-3.561502216E0,3.528946674E0,6.104677497E0
3.799485583E0,3.119099541E0,-3.943168693E0,2.598897908E0,5.659649426E0
3.809421583E0,2.515944629E0,-4.603081943E0,1.504362288E0,5.457238005E0
3.819356583E0,1.868031034E0,-5.201485993E0,7.978484827E-1,5.584045011E0
3.829292583E0,1.088214780E0,-5.950572791E0,9.266780656E-2,6.049968204E0
3.839227583E0,6.319015789E-1,-6.810749084E0,-3.630483939E-1,6.849628225E0
3.849162583E0,9.490007615E-1,-6.910604909E0,-4.292271441E-1,6.988654992E0
3.859098583E0,6.898048013E-1,-7.264010038E0,-2.287243652E-1,7.300273100E0
3.869033583E0,1.263980913E-1,-7.929371724E0,-8.823727624E-1,7.979316644E0
3.878968583E0,3.577917105E-1,-8.845138081E0,-2.024399030E0,9.080896102E0
3.888904583E0,1.261701084E0,-8.481910214E0,-2.732342479E0,9.000021441E0
3.898839583E0,1.729487107E0,-7.249557475E0,-3.210064090E0,8.114907314E0
3.908775583E0,1.449718303E0,-6.711413661E0,-3.967827279E0,7.930221296E0
3.918710583E0,1.108746108E0,-6.329990428E0,-6.037598655E0,8.817635413E0
3.928645583E0,5.263084656E-1,-6.630547838E0,-8.475710996E0,1.077398915E1
3.938581583E0,-7.358639038E-1,-7.698025467E0,-9.143958283E0,1.197551940E1
3.948516583E0,-1.810314338E0,-8.824364094E0,-7.564901909E0,1.176326403E1
3.958451583E0,-2.352741823E0,-1.043726357E1,-5.724773787E0,1.213445095E1
3.968387583E0,-2.123958986E0,-1.204589808E1,-4.935787345E0,1.319002878E1
3.978322583E0,-2.307814157E-1,-1.194083414E1,-5.639589795E0,1.320763995E1
3.988258583E0,3.196153564E0,-1.021386835E1,-7.665250069E0,1.316413928E1
3.998193583E0,7.717176853E0,-7.585333250E0,-1.026840300E1,1.491751317E1
4.008128583E0,1.156018859E1,-4.126333308E0,-1.283420449E1,1.775898060E1
4.018064583E0,1.306681960E1,-7.648003122E-1,-1.454731355E1,1.956913451E1
4.027999583E0,1.752711780E1,-2.883200935E0,-1.659266374E1,2.430697833E1
4.037934583E0,1.719238575E1,-2.995384153E0,-1.808137654E1,2.512939775E1
4.047870583E0,1.458489945E1,-2.520445815E0,-1.603140120E1,2.181920630E1
4.057805583E0,1.122604243E1,-3.777958246E0,-1.319973499E1,1.773499369E1
4.067741583E0,8.616989667E0,-5.766104831E0,-1.051585365E1,1.476765567E1
4.077676583E0,6.601217619E0,-7.043868216E0,-7.607635700E0,1.229098346E1
4.087611583E0,5.420577071E0,-7.113952943E0,-4.892812064E0,1.019463546E1
4.097547583E0,5.249368258E0,-6.336688998E0,-3.439735120E0,8.918591383E0
4.107482583E0,5.448101084E0,-5.521504106E0,-3.580479355E0,8.543339243E0
4.117417583E0,5.485429709E0,-5.331226938E0,-4.528459193E0,8.889255448E0
4.127353583E0,5.142579973E0,-5.545072478E0,-5.522051990E0,9.364134544E0
4.137288583E0,4.527473937E0,-5.975854982E0,-6.486350237E0,9.913707803E0
4.147224583E0,4.152594323E0,-6.720884396E0,-7.134759675E0,1.064514548E1
4.157159583E0,3.510023330E0,-7.575464319E0,-6.724789166E0,1.072057427E1
4.167094583E0,3.247362310E0,-8.932197860E0,-5.568535016E0,1.101535759E1
4.177030583E0,4.115119518E0,-9.920152187E0,-3.610460661E0,1.133044810E1
4.186965583E0,5.960273906E0,-1.003574579E1,-1.402117290E0,1.175614697E1
4.196900583E0,8.223784879E0,-9.604032413E0,1.827237350E-1,1.264521508E1
4.206836583E0,1.046236216E1,-8.998257948E0,1.219660188E0,1.385341976E1
4.216771583E0,1.253995038E1,-8.839188539E0,1.853103093E0,1.545365978E1
4.226708167E0,1.425587195E1,-8.988759731E0,2.351775863E0,1.701641961E1
4.236643167E0,1.566769386E1,-9.530258093E0,2.795031647E0,1.855032755E1
4.246578167E0,1.671930858E1,-1.100600469E1,3.776427737E0,2.036980180E1
4.256514167E0,1.638979927E1,-1.239355715E1,5.443102884E0,2.125683768E1
4.266449167E0,1.600274166E1,-1.260750093E1,7.254184377E0,2.162544823E1
4.276384167E0,1.477188639E1,-1.256289252E1,8.880992038E0,2.132854696E1
4.286320167E0,1.303017977E1,-1.248992628E1,9.533959966E0,2.041274690E1
4.296255167E0,1.040315793E1,-1.242167992E1,9.424622880E0,1.874426161E1
4.306191167E0,6.804701893E0,-1.206038164E1,9.390299140E0,1.673124296E1
4.316126167E0,3.853843703E0,-1.136213872E1,1.014689785E1,1.571336513E1
4.326061167E0,1.960824008E0,-9.872877449E0,1.117293334E1,1.503838354E1
4.335997167E0,1.012040763E0,-7.570815198E0,1.102053736E1,1.340871780E1
4.345932167E0,7.887847137E-1,-5.470025219E0,9.219770942E0,1.074930386E1
4.355867167E0,1.332515543E0,-4.069468551E0,6.899174772E0,8.120023676E0
4.365803167E0,2.193329768E0,-2.762467334E0,4.978495408E0,6.101420963E0
4.375738167E0,2.766551029E0,-1.560398494E0,3.281985428E0,4.567283263E0
4.385674167E0,2.901020617E0,-1.022286839E0,1.899127697E0,3.614924205E0
4.395609167E0,2.731184145E0,-9.847161394E-1,1.273125958E0,3.170154951E0
4.405544167E0,2.543935835E0,-1.078862159E0,1.233216957E0,3.025950620E0
4.415480167E0,2.535892697E0,-1.241970239E0,1.268663948E0,3.095601728E0
4.425415167E0,2.431417864E0,-1.390929812E0,1.306241080E0,3.090751418E0
4.435350167E0,2.098014305E0,-1.671168732E0,1.218573191E0,2.946080375E0
4.445286167E0,2.068254316E0,-1.918653304E0,1.099449620E0,3.027820319E0
4.455221167E0,2.367365710E0,-1.772353629E0,1.130243981E0,3.165929445E0
4.465156167E0,2.998477330E0,-1.502944922E0,1.313456544E0,3.602065772E0
4.475092167E0,4.400435868E0,-9.611308104E-1,1.605193428E0,4.781658102E0
4.485027167E0,5.516937431E0,-1.952244973E-1,1.484732600E0,5.716567336E0
4.494963167E0,5.953676493E0,-1.462084579E-1,1.226413137E0,6.080438296E0
4.504898167E0,6.223204483E0,-6.364290780E-1,1.060329993E0,6.344888943E0
4.514833167E0,6.225625230E0,-9.639789891E-1,8.171346465E-1,6.352587979E0
4.524769167E0,5.944144946E0,-1.229204013E0,8.600438538E-1,6.130536443E0
4.534704167E0,5.238932147E0,-1.753455428E0,1.344639745E0,5.685865987E0
4.544639167E0,4.043860378E0,-2.563447993E0,1.952930413E0,5.170880928E0
4.554575167E0,3.029992068E0,-3.074801620E0,2.362187415E0,4.920892838E0
4.564510167E0,2.656692080E0,-3.183289690E0,2.655377333E0,4.923654622E0
4.574446167E0,2.762240754E0,-3.507502595E0,2.747211363E0,5.242110139E0
4.584381167E0,2.646516170E0,-3.610721739E0,2.652622125E0,5.203629834E0
4.594316167E0,1.773143881E0,-3.559502469E0,2.697839813E0,4.805459052E0
4.604252167E0,5.346451333E-1,-4.063151804E0,2.965435299E0,5.058542726E0
4.614187167E0,-1.003333966E0,-4.742014711E0,3.574273120E0,6.022359247E0
4.624122167E0,-1.891312308E0,-5.497282015E0,3.887342402E0,6.993468578E0
4.634058167E0,-1.815140630E0,-6.266565095E0,3.317082170E0,7.318989529E0
4.643993167E0,-1.477811251E0,-6.755680007E0,2.583996863E0,7.382423602E0
4.653929167E0,-1.128283118E0,-6.959399339E0,1.840019217E0,7.286421115E0
4.663864167E0,-1.132220340E0,-7.794307474E0,1.324938136E0,7.986777383E0
4.673799167E0,-8.647520319E-1,-8.510498421E0,1.596492772E0,8.702020951E0
4.683735167E0,3.094644731E-1,-8.989612255E0,1.736629773E0,9.161046868E0
4.693670167E0,2.614703224E0,-8.788883774E0,2.040615990E0,9.393895068E0
4.703605167E0,4.009621714E0,-8.314970453E0,1.848142023E0,9.414426635E0
4.713541167E0,3.972041659E0,-8.558690003E0,-3.951051325E-2,9.435563078E0
4.723476167E0,2.752712424E0,-8.342911373E0,-2.785436366E0,9.216303577E0
4.733412167E0,1.543719311E0,-8.367798293E0,-5.500082831E0,1.013183245E1
4.743347167E0,-7.506947815E-2,-9.906995952E0,-6.691304501E0,1.195523986E1
4.753282167E0,-1.523855735E0,-1.254123209E1,-6.084450055E0,1.402230977E1
4.763218167E0,-1.177752024E0,-1.473344913E1,-4.790453630E0,1.553737652E1
4.773153167E0,1.150261924E0,-1.462519028E1,-4.057305758E0,1.522107168E1
4.783088167E0,3.419683263E0,-1.227411257E1,-5.546450082E0,1.389644492E1
4.793024167E0,5.936735939E0,-9.837135758E0,-9.112428342E0,1.466459764E1
4.802959167E0,8.823749551E0,-7.714127530E0,-1.258626618E1,1.719826782E1
4.812895167E0,1.052396140E1,-5.712536150E0,-1.433082858E1,1.867510323E1
4.822830167E0,1.209199519E1,-4.947309868E0,-1.466314338E1,1.963924633E1
4.832765167E0,1.436156154E1,-6.190769393E0,-1.540057785E1,2.194898343E1
4.842701167E0,1.264164516E1,-6.055589368E0,-1.581707736E1,2.113436280E1
4.852636167E0,9.762628198E0,-5.081328635E0,-1.407520936E1,1.786729774E1
4.862571167E0,8.867876734E0,-5.530093081E0,-1.242395566E1,1.623501898E1
4.872507167E0,9.053466774E0,-6.054011205E0,-1.099034000E1,1.547268191E1
4.882442167E0,1.076404808E1,-5.105236731E0,-9.658030865E0,1.533641853E1
4.892378167E0,1.180444784E1,-4.636408734E0,-9.181789768E0,1.565715613E1
4.902313167E0,1.208858393E1,-5.394320734E0,-9.611518604E0,1.635890728E1
4.912248167E0,1.276361106E1,-6.011407807E0,-9.448732120E0,1.698014516E1
4.922184167E0,1.199795559E1,-6.927869398E0,-7.866107190E0,1.593179071E1
4.932119167E0,9.847169580E0,-8.368352609E0,-5.775201344E0,1.415447013E1
4.942054167E0,7.042973008E0,-1.029646495E1,-3.240114101E0,1.288871594E1
4.951990167E0,4.380422310E0,-1.161289305E1,-4.192687511E-1,1.241866220E1
4.961925167E0,2.739546833E0,-1.130360809E1,1.361992819E0,1.171032438E1
4.971861167E0,2.476205197E0,-1.046582839E1,1.649652148E0,1.088055643E1
4.981796167E0,4.035411444E0,-9.051995029E0,1.027930279E0,9.963924939E0
4.991731167E0,6.487649488E0,-7.419476978E0,1.654861432E-1,9.857262306E0
5.001667167E0,8.295234346E0,-6.507914768E0,-2.920233983E-1,1.054747103E1
5.011602167E0,1.038206000E1,-5.730987623E0,-7.089269507E-1,1.187998175E1
5.021537167E0,1.285522757E1,-5.740070688E0,3.313792527E-2,1.407857896E1
5.031473167E0,1.367358750E1,-6.524690430E0,2.316389099E0,1.532658602E1
5.041408167E0,1.229646998E1,-6.554091985E0,5.074343551E0,1.482930404E1
5.051344167E0,1.130466994E1,-5.641738647E0,6.338635536E0,1.413517166E1
5.061279167E0,1.160733352E1,-5.212379356E0,5.945322576E0,1.404442774E1
5.071214167E0,1.092788121E1,-5.220024590E0,5.362714194E0,1.324484609E1
5.081150167E0,8.705670878E0,-6.845370448E0,4.256092379E0,1.186432149E1
5.091085167E0,6.533853602E0,-9.474047055E0,3.158389322E0,1.193416246E1
5.101020167E0,4.720257221E0,-1.116510392E1,3.254492989E0,1.255117917E1
5.110956167E0,2.628408220E0,-1.206222000E1,4.205767148E0,1.304201512E1
5.120891167E0,9.734994256E-1,-1.305773302E1,5.937414801E0,1.437723852E1
5.130827167E0,-3.168822509E-1,-1.271109605E1,8.436810055E0,1.525949347E1
5.140762167E0,-1.140157351E0,-1.050628878E1,1.023054344E1,1.470870769E1
5.150697167E0,-4.589029330E-1,-7.856204930E0,1.068429440E1,1.326969082E1
5.160633167E0,7.854231495E-1,-5.869049740E0,9.903160179E0,1.153842346E1
5.170568167E0,2.021653177E0,-4.307939640E0,8.574357033E0,9.806376703E0
5.180503167E0,3.614009628E0,-2.819341446E0,6.859048839E0,8.249624401E0
5.190439167E0,5.083440065E0,-1.421441753E0,5.057971932E0,7.310604600E0
5.200374167E0,5.816362234E0,-5.137357825E-1,3.358966945E0,6.736219491E0
5.210310167E0,5.779795502E0,-1.897018021E-1,1.738429254E0,6.038556043E0
5.220245167E0,5.522301081E0,-1.973552227E-1,5.500382209E-1,5.553134283E0
5.230179917E0,5.151268936E0,-2.818621069E-1,-1.746779662E-1,5.161930868E0
5.240115917E0,4.663149220E0,-5.352476889E-1,-3.944689554E-1,4.710313843E0
5.250050917E0,3.909688121E0,-1.227127667E0,2.448018694E-1,4.105049509E0
5.259985917E0,3.832193218E0,-1.885249915E0,1.370358723E0,4.485282057E0
5.269921917E0,4.229996256E0,-1.858547435E0,2.427920060E0,5.219373785E0
5.279856917E0,4.914920971E0,-1.464808213E0,3.339522030E0,6.120009692E0
5.289792917E0,6.064064323E0,-1.110971559E0,3.857273095E0,7.272254784E0
5.299727917E0,7.566203499E0,-6.628789580E-1,3.820734429E0,8.502050075E0
5.309662917E0,9.100928038E0,4.606027186E-2,3.057183375E0,9.600801159E0
5.319598917E0,9.711432901E0,3.015362334E-1,1.981474620E0,9.916102801E0
5.329533917E0,1.003282336E1,-2.054612178E-1,1.008156458E0,1.008544190E1
5.339468917E0,9.506005597E0,-1.150847815E0,8.963430762E-2,9.575835599E0
5.349404917E0,7.591598541E0,-2.412643624E0,-2.573511636E-1,7.969908863E0
5.359339917E0,5.196722267E0,-3.758337622E0,-2.990485355E-1,6.420315726E0
5.369275917E0,3.126334009E0,-5.051839957E0,-2.142168385E-1,5.944824652E0
5.379210917E0,1.643684772E0,-5.632056828E0,-3.260758281E-2,5.867096982E0
5.389145917E0,1.581536471E0,-5.019734066E0,3.333041561E-1,5.273526274E0
5.399081917E0,1.688720319E0,-4.184025446E0,6.101639700E-1,4.553036934E0
5.409016917E0,1.096420470E0,-4.186197102E0,5.250801118E-1,4.359139038E0
5.418951917E0,8.638056600E-1,-4.698319638E0,2.017242622E-1,4.781324117E0
5.428887917E0,1.020871813E0,-4.789551989E0,1.272494459E-1,4.898793723E0
5.438822917E0,2.943114138E-1,-4.671503137E0,-4.801417744E-1,4.705326439E0
5.448758917E0,-7.588133481E-1,-5.247629880E0,-1.274233421E0,5.453172276E0
5.458693917E0,-1.960262091E0,-6.044052227E0,-1.903703874E0,6.633044793E0
5.468628917E0,-2.303737771E0,-6.623958610E0,-2.055250694E0,7.308083935E0
5.478564917E0,-1.748113120E0,-6.522649167E0,-2.207130220E0,7.104384241E0
5.488499917E0,-2.108858259E0,-6.793021495E0,-1.785256680E0,7.333455230E0
5.498434917E0,-2.501480079E0,-7.263238791E0,-1.161100616E0,7.769182387E0
5.508370917E0,-1.669091216E0,-7.915185210E0,-6.796826863E-1,8.117757753E0
5.518305917E0,-3.432596254E-1,-7.788240988E0,-6.030525863E-2,7.796034991E0
5.528241917E0,7.003613645E-1,-7.089351368E0,7.083176708E-1,7.158988950E0
5.538176917E0,1.123729599E0,-6.825901558E0,6.437041837E-1,6.947665462E0
5.548111917E0,7.525957114E-1,-6.847366102E0,-1.249015549E0,7.000918703E0
5.558047917E0,5.376263362E-1,-7.121563679E0,-3.339405670E0,7.883992741E0
5.567982917E0,-2.066370928E-1,-8.138672808E0,-4.028922204E0,9.083661602E0
5.577917917E0,-1.147450583E0,-9.972880039E0,-3.521073983E0,1.063827717E1
5.587853917E0,-1.478326390E0,-1.229850482E1,-2.457780036E0,1.262851346E1
5.597788917E0,-1.632947822E0,-1.407336865E1,-1.138639998E0,1.421346984E1
5.607724917E0,-6.952345258E-1,-1.435950098E1,-1.140965436E0,1.442152633E1
5.617659917E0,1.594470804E0,-1.351036599E1,-2.898177408E0,1.390941259E1
5.627594917E0,4.709329945E0,-1.090068581E1,-5.919350998E0,1.326806150E1
5.637530917E0,9.295322231E0,-6.882578620E0,-1.043175081E1,1.557543992E1
5.647465917E0,1.414870301E1,-3.844518856E0,-1.433145072E1,2.050259988E1
5.657400917E0,1.784123490E1,-1.691389281E0,-1.605081279E1,2.405824290E1
5.667336917E0,1.980513922E1,-7.507994467E-1,-1.608385891E1,2.552445409E1
5.677271917E0,1.974710443E1,-1.868419582E0,-1.461401040E1,2.463754097E1
5.687207917E0,1.818341045E1,-3.388507956E0,-1.163216197E1,2.185007080E1
5.697142917E0,1.538474944E1,-4.970739661E0,-9.486631433E0,1.874553131E1
5.707077917E0,1.281604187E1,-6.840778629E0,-8.343773253E0,1.675308132E1
5.717013917E0,1.075185079E1,-7.944510750E0,-7.620665635E0,1.538805027E1
5.726948917E0,1.006895213E1,-7.960647311E0,-7.672819290E0,1.495419200E1
5.736883917E0,1.093676430E1,-7.329888863E0,-8.277624872E0,1.555182168E1
5.746819917E0,1.119537730E1,-7.238582836E0,-8.916955923E0,1.603887955E1
5.756754917E0,1.055861200E1,-8.066985360E0,-9.411762514E0,1.628317579E1
5.766690917E0,9.218209736E0,-9.060848299E0,-8.845831561E0,1.566279345E1
5.776625917E0,7.387226660E0,-1.012162268E1,-7.135442630E0,1.441987881E1
5.786560917E0,6.127018955E0,-1.096582380E1,-6.179020582E0,1.399892668E1
5.796496917E0,5.998728704E0,-1.090644883E1,-5.671240189E0,1.367838943E1
5.806431917E0,6.491499880E0,-1.038914332E1,-5.308787663E0,1.335129567E1
5.816366917E0,7.779442098E0,-1.075465160E1,-4.426237876E0,1.399192025E1
5.826302917E0,9.649824298E0,-1.224210842E1,-2.481431731E0,1.578435399E1
5.836237917E0,1.247413646E1,-1.346866248E1,-8.417362216E-1,1.837709088E1
5.846173917E0,1.589742395E1,-1.525196034E1,1.357217690E0,2.207243580E1
5.856108917E0,1.811380636E1,-1.758550809E1,5.803704182E0,2.590449880E1
5.866043917E0,2.133933400E1,-1.721839417E1,1.112488677E1,2.959059612E1
5.875979917E0,2.422428472E1,-1.456485403E1,1.467882328E1,3.184994185E1
5.885914917E0,2.501917392E1,-1.241184023E1,1.618573846E1,3.227988493E1
5.895849917E0,2.406743900E1,-1.067623927E1,1.527785415E1,3.044070519E1
5.905785917E0,2.087979898E1,-1.031564382E1,1.274415269E1,2.654791783E1
5.915720917E0,1.565792434E1,-1.185732070E1,9.228601407E0,2.170100764E1
5.925656917E0,8.904368037E0,-1.377758842E1,5.312412937E0,1.724330142E1
5.935591917E0,2.249663597E0,-1.539396231E1,3.555669034E0,1.595862914E1
5.945526917E0,-1.618896671E0,-1.467310119E1,5.681583914E0,1.581774702E1
5.955462917E0,-2.196669697E0,-1.066561722E1,9.295526884E0,1.431738693E1
5.965397917E0,-8.310410795E-1,-5.969685584E0,1.200256320E1,1.343090833E1
5.975332917E0,1.894782631E0,-2.633190073E0,1.227874357E1,1.270005648E1
5.985268917E0,4.239126683E0,-8.220524472E-1,9.531556760E0,1.046405942E1
5.995203917E0,5.358963790E0,-5.605959535E-2,5.808263256E0,7.903009403E0
6.005139917E0,6.186930111E0,5.239882904E-1,2.795261443E0,6.809269745E0
6.015074917E0,6.777236352E0,8.071040404E-1,7.546206021E-1,6.866716956E0
6.025009917E0,6.507332970E0,1.906624997E-1,-3.074056685E-2,6.510198120E0
6.034945917E0,4.812630073E0,-1.228060883E0,-1.508964631E-1,4.969135890E0
6.044880917E0,2.426149230E0,-2.826093226E0,-3.811109912E-1,3.744095164E0
6.054815917E0,1.062742262E0,-3.375618061E0,6.445415050E-2,3.539544144E0
6.064751917E0,9.698104173E-1,-2.985666665E0,1.144546856E0,3.341365766E0
6.074686917E0,1.984561949E0,-2.062253904E0,2.127245998E0,3.566027598E0
6.084622917E0,2.993517721E0,-1.225762342E0,2.736884888E0,4.237237373E0
6.094557917E0,4.338817617E0,-8.118081254E-1,3.114627298E0,5.402339674E0
6.104492917E0,5.717364780E0,-4.326471806E-1,3.218560095E0,6.575300198E0
6.114428917E0,6.029536514E0,-3.512328887E-1,2.671141719E0,6.604064900E0
6.124363917E0,5.512359061E0,-1.015112890E0,2.059522377E0,5.971447816E0
6.134298917E0,4.756633919E0,-2.072114648E0,1.676775627E0,5.452595883E0
6.144234917E0,3.584707476E0,-2.970724690E0,1.449853520E0,4.876208374E0
6.154169917E0,1.983453610E0,-3.606250958E0,1.738950241E0,4.468006505E0
6.164105917E0,7.572047791E-1,-3.859690919E0,2.228779682E0,4.520844162E0
6.174040917E0,-3.287292945E-1,-3.830854205E0,2.830016123E0,4.774148945E0
6.183975917E0,-1.125228532E0,-4.121269619E0,3.257563362E0,5.372403706E0
6.193911917E0,-1.416180428E0,-4.618633783E0,3.416976002E0,5.917184299E0
6.203846917E0,-7.013249856E-1,-4.763868095E0,3.101171393E0,5.727439216E0
6.213781917E0,9.417771113E-1,-4.385085465E0,2.524485657E0,5.146741347E0
6.223717917E0,1.793742452E0,-4.159547832E0,1.976705046E0,4.942338818E0
6.233652917E0,1.341665266E0,-4.383530105E0,1.406040772E0,4.795034152E0
6.243588917E0,6.956324288E-1,-4.787648721E0,5.745181008E-1,4.871915003E0
6.253523917E0,-1.577330276E-1,-5.365164177E0,-7.100836030E-1,5.414248340E0
6.263458917E0,-1.255774931E0,-5.978109668E0,-4.048448396E-1,6.121982132E0
6.273394917E0,-2.294695344E0,-6.683342348E0,2.738648701E-1,7.071611812E0
6.283329917E0,-1.990240765E0,-7.610699641E0,5.044906037E-1,7.882786188E0
6.293264917E0,5.436945766E-2,-7.736297833E0,8.031874292E-1,7.778069827E0
6.303200917E0,2.121158170E0,-6.789569299E0,1.248073417E0,7.221859214E0
6.313135917E0,3.296027224E0,-5.965825837E0,8.658543782E-1,6.870558724E0
6.323071917E0,3.548416733E0,-5.690179905E0,-6.398358120E-1,6.736378740E0
6.333006917E0,2.515717172E0,-5.644712541E0,-1.787235963E0,6.433181557E0
6.342941917E0,1.224447888E-1,-6.005660579E0,-3.921546274E0,7.173665513E0
6.352877917E0,-1.110230132E0,-7.545333617E0,-5.787536631E0,9.573936003E0
6.362812917E0,-1.702612719E0,-9.659910745E0,-5.276271297E0,1.113785457E1
6.372747917E0,-1.462409685E0,-1.122496772E1,-2.978492131E0,1.170512527E1
6.382683917E0,4.177151459E-1,-1.112951894E1,-1.704953506E0,1.126710008E1
6.392618917E0,2.176366995E0,-9.487545353E0,-2.480829760E0,1.004512849E1
6.402554917E0,3.306319785E0,-8.143445891E0,-4.884924170E0,1.005534413E1
6.412489917E0,3.894176043E0,-7.672615222E0,-6.866163146E0,1.100808011E1
6.422424917E0,4.891506965E0,-7.918296513E0,-6.828310027E0,1.154348638E1
6.432360917E0,5.907185866E0,-7.881850233E0,-5.914127680E0,1.148892137E1
6.442295917E0,7.262880941E0,-7.116899355E0,-6.248897733E0,1.193517570E1
6.452230917E0,8.882673113E0,-6.006986142E0,-8.006667237E0,1.338254402E1
6.462166917E0,1.009408580E1,-4.695725228E0,-1.044042340E1,1.526246522E1
6.472101917E0,1.078859937E1,-3.870595684E0,-1.298767285E1,1.732209668E1
6.482037917E0,1.200593236E1,-3.825195563E0,-1.543188267E1,1.992278936E1
6.491972917E0,1.417667726E1,-3.336313078E0,-1.645144179E1,2.197177963E1
6.501907917E0,1.555410351E1,-1.891103709E0,-1.562130556E1,2.212536094E1
6.511843917E0,1.499277315E1,-2.308411158E0,-1.392021253E1,2.058845127E1
6.521778917E0,1.396897364E1,-3.765394334E0,-1.065125997E1,1.796551579E1
6.531713917E0,1.201743851E1,-4.942129819E0,-7.085768194E0,1.480039143E1
6.541649917E0,9.641963301E0,-6.645896194E0,-4.935088602E0,1.270789094E1
6.551584917E0,7.088715191E0,-8.548236351E0,-3.755062011E0,1.172274364E1
6.561520917E0,4.889939327E0,-9.784562858E0,-2.983478637E0,1.133800343E1
6.571455917E0,3.791559162E0,-1.011936449E1,-2.625098112E0,1.112063841E1
6.581390917E0,3.619595473E0,-9.526004829E0,-2.249752475E0,1.043588164E1
6.591326917E0,4.135849652E0,-8.495255899E0,-1.973125380E0,9.652349398E0
6.601261917E0,4.951898178E0,-7.290514297E0,-1.930410300E0,9.022160396E0
6.611196917E0,5.902746075E0,-6.767483781E0,-2.345689204E0,9.281352584E0
6.621132917E0,6.524928997E0,-6.602813909E0,-2.880974607E0,9.719663812E0
6.631067917E0,6.720249388E0,-7.485184479E0,-3.301391167E0,1.058720559E1
6.641003917E0,7.372381164E0,-9.501164687E0,-2.114426855E0,1.221044370E1
6.650938917E0,7.956886967E0,-1.134718154E1,6.148125064E-1,1.387258352E1
6.660873917E0,9.497353472E0,-1.210097885E1,3.331136538E0,1.573943718E1
6.670809917E0,1.225633703E1,-1.168749183E1,5.493511730E0,1.780432346E1
6.680744917E0,1.510443158E1,-1.069206535E1,7.998409215E0,2.016032402E1
6.690679917E0,1.720849717E1,-9.674322377E0,1.048956574E1,2.235522037E1
6.700615917E0,1.810583427E1,-9.274955209E0,1.216440711E1,2.370271776E1
6.710550917E0,1.785669728E1,-8.654607729E0,1.263580379E1,2.352503794E1
6.720486917E0,1.628909384E1,-8.171892595E0,1.183009606E1,2.172707020E1
6.730421917E0,1.352033666E1,-8.395717578E0,9.882573302E0,1.873373513E1
6.740356917E0,9.895086343E0,-9.264731938E0,7.934676318E0,1.570691185E1
6.750292917E0,5.724758584E0,-1.020226397E1,6.654423773E0,1.345884121E1
6.760227917E0,2.654222508E0,-1.023247536E1,6.114531056E0,1.221212263E1
6.770162917E0,9.252458632E-1,-9.461289600E0,6.165058601E0,1.133049109E1
6.780098917E0,1.365102661E-1,-8.008367023E0,6.645464085E0,1.040743822E1
6.790033917E0,7.477179641E-1,-5.728944021E0,6.814625788E0,8.934148330E0
6.799969917E0,1.893685693E0,-3.155734102E0,6.423054712E0,7.402724840E0
6.809904917E0,2.983100907E0,-1.526847755E0,5.792491561E0,6.692018647E0
6.819839917E0,3.820891719E0,-6.271618259E-1,5.037455807E0,6.353621526E0
6.829775917E0,3.843366078E0,-4.357847965E-1,3.605333530E0,5.287702815E0
6.839710917E0,3.335733619E0,-1.046408358E0,1.605216233E0,3.846921936E0
6.849645917E0,2.677610201E0,-1.565845760E0,3.696206278E-1,3.123793966E0
6.859581917E0,2.578211628E0,-1.742189013E0,7.116751420E-1,3.192002391E0
6.869516917E0,3.299680272E0,-1.673652629E0,1.933469564E0,4.174602684E0
6.879452917E0,4.100241278E0,-1.613559040E0,2.749455525E0,5.193751726E0
6.889387917E0,4.640935648E0,-1.576543826E0,2.871881602E0,5.680799069E0
6.899322917E0,5.149058688E0,-1.541661091E0,2.326221484E0,5.856691104E0
6.909258917E0,5.317702328E0,-1.524983663E0,1.622249464E0,5.765000134E0
6.919193917E0,5.398392735E0,-1.695390823E0,1.207041019E0,5.785666961E0
6.929128917E0,6.049679587E0,-1.525211120E0,1.326631782E0,6.378467211E0
6.939064917E0,7.022624112E0,-1.010523995E0,1.604913347E0,7.274211642E0
6.948999917E0,6.950647227E0,-1.159795225E0,1.416986175E0,7.187800195E0
6.958935917E0,5.819559492E0,-2.225823330E0,5.233024120E-2,6.230914911E0
6.968870917E0,4.163982068E0,-3.335310865E0,-1.096974494E0,5.446686908E0
6.978805917E0,2.087570301E0,-4.018854468E0,-1.302250940E0,4.712218003E0
6.988741917E0,2.546088195E-1,-4.635053349E0,-1.020657805E0,4.752924106E0
6.998676917E0,-1.049963465E0,-5.040035598E0,-3.564953828E-1,5.160568870E0
7.008611917E0,-2.328101656E0,-5.014200261E0,6.654131413E-3,5.528318538E0
7.018547917E0,-3.143294150E0,-5.208071712E0,-4.015791696E-1,6.096357511E0
7.028482917E0,-3.172897434E0,-5.557023017E0,-9.807856411E-2,6.399797055E0
7.038418917E0,-2.935860959E0,-5.719432940E0,4.486483786E-1,6.444569660E0
7.048353917E0,-2.661970946E0,-5.872297869E0,1.096253240E0,6.540010913E0
7.058288917E0,-2.345341879E0,-6.100223504E0,1.699218995E0,6.752829076E0
7.068224917E0,-1.585542983E0,-6.539815423E0,1.813994283E0,6.969484025E0
7.078159917E0,-5.899907836E-1,-6.939663817E0,1.467436828E0,7.117611528E0
7.088094917E0,9.398025066E-2,-6.918184655E0,1.034204926E0,6.995690890E0
7.098030917E0,5.047076815E-1,-6.716753338E0,3.463022241E-1,6.744585271E0
7.107965917E0,6.285774368E-1,-6.957325916E0,-6.264525586E-1,7.013696337E0
7.117901917E0,1.749945930E-1,-7.429897301E0,-1.476240689E0,7.577155375E0
7.127836917E0,-6.725183854E-1,-7.943930706E0,-2.154116878E0,8.258240464E0
7.137771917E0,-1.316629828E0,-8.764847040E0,-2.727538406E0,9.273377135E0
7.147707917E0,-1.677071789E0,-1.018230625E1,-2.708588457E0,1.066903847E1
7.157642917E0,-1.452651266E0,-1.115039701E1,-1.750050887E0,1.137999241E1
7.167577917E0,-1.103867192E0,-1.094421132E1,-1.171715651E0,1.106197097E1
7.177513917E0,-2.573020470E-1,-1.076283186E1,-1.636689456E0,1.088960542E1
7.187448917E0,1.112482479E0,-1.082148879E1,-2.579971348E0,1.118027231E1
7.197384917E0,1.685393254E0,-1.115129748E1,-3.490757631E0,1.180581953E1
7.207319917E0,2.563705856E0,-1.159243131E1,-4.276847948E0,1.261936923E1
7.217254917E0,4.238208085E0,-1.141763698E1,-4.841168578E0,1.310579090E1
7.227190917E0,4.950086710E0,-1.118402434E1,-4.984757776E0,1.320733012E1
7.237125792E0,6.148823807E0,-1.076730732E1,-5.611437206E0,1.360996578E1
7.247060792E0,8.677115416E0,-9.162712643E0,-7.272161057E0,1.456475064E1
7.256996792E0,1.182439854E1,-6.908095284E0,-9.016332276E0,1.639611018E1
7.266931792E0,1.496272314E1,-4.616415642E0,-1.037547019E1,1.878416245E1
7.276867792E0,1.744143504E1,-2.482455578E0,-1.167723230E1,2.113584624E1
7.286802792E0,1.901575107E1,-1.631659388E0,-1.298398092E1,2.308343263E1
7.296737792E0,1.948274597E1,-1.601266146E0,-1.371645929E1,2.388059252E1
7.306673792E0,1.869525349E1,-2.478934970E0,-1.428003966E1,2.365538320E1
7.316608792E0,1.684668433E1,-3.804379475E0,-1.501444059E1,2.288487497E1
7.326543792E0,1.404826188E1,-5.268603843E0,-1.459728502E1,2.093304991E1
7.336479792E0,1.068062468E1,-7.675112568E0,-1.256699492E1,1.819099937E1
7.346414792E0,7.607057995E0,-9.541847860E0,-9.589497989E0,1.552007293E1
7.356350792E0,5.811797898E0,-9.921589433E0,-6.635075921E0,1.327550994E1
7.366285792E0,4.780953659E0,-9.804538701E0,-4.447318550E0,1.177986160E1
7.376220792E0,4.157983702E0,-9.551349585E0,-3.047217965E0,1.085369268E1
7.386156792E0,3.440429769E0,-8.984710534E0,-2.783050117E0,1.001533566E1
7.396091792E0,3.545395476E0,-8.707322132E0,-3.492824914E0,1.002931272E1
7.406027792E0,4.538473134E0,-8.388821957E0,-4.272485341E0,1.045103838E1
7.415962792E0,5.314019167E0,-9.269902046E0,-4.518055242E0,1.160097870E1
7.425897792E0,5.324482759E0,-1.226574287E1,-3.309294264E0,1.377497707E1
7.435833792E0,5.109212252E0,-1.498715514E1,-2.103991914E-1,1.583550242E1
7.445768792E0,6.216683083E0,-1.542958355E1,2.798973840E0,1.686871221E1
7.455703792E0,9.216897621E0,-1.456989667E1,4.591164148E0,1.784129701E1
7.465639792E0,1.314633003E1,-1.304899728E1,6.101198235E0,1.950197281E1
7.475574792E0,1.683302523E1,-1.093388280E1,7.999345939E0,2.160763909E1
7.485510792E0,1.959427576E1,-9.928137145E0,9.441942333E0,2.390928323E1
7.495445792E0,2.049837809E1,-1.036007213E1,1.117758188E1,2.554315829E1
7.505380792E0,1.853684189E1,-1.111705852E1,1.350764820E1,2.548842987E1
7.515316792E0,1.373946340E1,-1.154253585E1,1.521080179E1,2.352384916E1
7.525251792E0,8.139030658E0,-1.122409297E1,1.500260349E1,2.042797578E1
7.535186792E0,3.072806550E0,-1.052534135E1,1.325274234E1,1.720058517E1
7.545122792E0,-5.786351985E-1,-9.791222836E0,1.120753950E1,1.489334768E1
7.555057792E0,-2.578853652E0,-8.921083472E0,9.567915332E0,1.333346243E1
7.564993792E0,-2.554910474E0,-7.447168221E0,8.284001260E0,1.142858517E1
7.574928792E0,-7.330765361E-1,-5.555801534E0,7.136857656E0,9.074087783E0
7.584863792E0,1.908742858E0,-3.301083604E0,5.856389934E0,6.988401485E0
7.594799792E0,4.740883275E0,-9.283004487E-1,4.363414514E0,6.509769748E0
7.604734792E0,6.593660093E0,8.113789397E-1,2.580269263E0,7.126884219E0
7.614669792E0,7.082985504E0,1.336505391E0,9.482593346E-1,7.270084324E0
7.624605792E0,6.598023285E0,8.748954892E-1,-8.366780877E-2,6.656301803E0
7.634540792E0,5.372584294E0,-1.301853329E-1,-5.098742813E-1,5.398294360E0
7.644476792E0,4.677734515E0,-1.012414985E0,-3.004732096E-1,4.795463319E0
7.654411792E0,4.246046278E0,-1.567271311E0,1.518159378E-1,4.528608664E0
7.664346792E0,4.102963741E0,-1.931566880E0,-7.628248304E-2,4.535535370E0
7.674282792E0,4.274909889E0,-1.862070383E0,-7.147025380E-1,4.717304356E0
7.684217792E0,5.084614770E0,-1.318955265E0,-8.530906373E-1,5.321720961E0
7.694152792E0,6.252339404E0,-5.691767424E-1,-1.051717629E0,6.365675154E0
7.704088792E0,6.850326548E0,-2.909381551E-1,-1.410141424E0,7.000008404E0
7.714023792E0,7.055717599E0,-4.151300919E-1,-1.582811164E0,7.242981086E0
7.723959792E0,6.858990952E0,-7.444879621E-1,-1.069326081E0,6.981652918E0
7.733894792E0,5.547188585E0,-1.671191536E0,-1.412536736E-1,5.795182047E0
7.743829792E0,3.677216275E0,-3.172107475E0,6.155400462E-1,4.895209384E0
7.753765792E0,2.244251415E0,-4.271245438E0,1.436430506E0,5.034236248E0
7.763700792E0,2.050157184E0,-4.288787085E0,2.638290015E0,5.436673003E0
7.773635792E0,2.383853104E0,-3.807186431E0,3.517665641E0,5.705383046E0
7.783571792E0,2.371009694E0,-3.835391060E0,3.682057185E0,5.821465165E0
7.793506792E0,1.672012778E0,-4.288781823E0,3.102649570E0,5.551190017E0
7.803442792E0,7.356455103E-1,-4.750279166E0,2.099742011E0,5.245497401E0
7.813377792E0,1.251631594E-1,-4.956712775E0,1.322001080E0,5.131506037E0
7.823312792E0,-5.469108376E-1,-4.920892147E0,1.095036142E0,5.070837716E0
7.833248792E0,-1.307517234E0,-5.014427717E0,5.597830443E-1,5.212239798E0
7.843183792E0,-2.152631392E0,-5.703660661E0,6.575807959E-1,6.131719119E0
7.853118792E0,-2.912896604E0,-6.223797975E0,1.289450654E0,6.991660093E0
7.863054792E0,-3.324986436E0,-6.561787505E0,1.889647021E0,7.594955953E0
7.872989792E0,-3.326604361E0,-6.937554141E0,2.197857851E0,8.001658151E0
7.882925792E0,-2.829193127E0,-7.541638761E0,1.964407766E0,8.290931602E0
7.892860792E0,-2.061105803E0,-8.318640751E0,1.413129643E0,8.685901016E0
7.902795792E0,-8.227155215E-1,-8.465963103E0,9.647259709E-1,8.560378981E0
7.912731792E0,2.889492247E-1,-7.779196515E0,5.582088277E-1,7.804549133E0
7.922666792E0,8.927391449E-1,-7.061657785E0,1.333165169E-4,7.117864418E0
7.932601792E0,8.440122503E-1,-6.744612397E0,-7.859479371E-1,6.842504456E0
7.942537792E0,1.703910801E-1,-7.216824762E0,-1.765197222E0,7.431521648E0
7.952472792E0,-1.038033391E0,-8.229874170E0,-2.725653264E0,8.731410418E0
7.962408792E0,-1.375983744E0,-9.351014621E0,-2.916624204E0,9.891486363E0
7.972343792E0,-1.569955768E0,-1.025717400E1,-2.448941385E0,1.066169281E1
7.982278792E0,-1.081843654E0,-1.085809002E1,-2.635248586E0,1.122555298E1
7.992214792E0,-1.695487887E-1,-1.090107641E1,-3.527783078E0,1.145894703E1
8.002149792E0,7.117634350E-1,-1.019544027E1,-4.916543573E0,1.134134076E1
8.012084792E0,1.429351866E0,-9.458501648E0,-6.172937139E0,1.138470259E1
8.022020792E0,2.615877637E0,-8.655069659E0,-6.921080196E0,1.138658850E1
8.031955792E0,3.800369747E0,-8.286717292E0,-6.773210544E0,1.135732692E1
8.041891792E0,4.397754627E0,-8.763343136E0,-6.067157500E0,1.153025710E1
8.051826792E0,5.425259521E0,-9.612982746E0,-5.813997620E0,1.247579442E1
8.061761792E0,6.860480822E0,-9.827961477E0,-6.592747343E0,1.367915719E1
8.071697792E0,9.165135144E0,-9.344438258E0,-8.535671854E0,1.562612948E1
8.081632792E0,1.157787876E1,-7.823447074E0,-9.987094620E0,1.717543768E1
8.091567792E0,1.337198929E1,-5.934084227E0,-1.142488636E1,1.856209798E1
8.101503792E0,1.463089014E1,-5.084375035E0,-1.270410745E1,2.003267736E1
8.111438792E0,1.555672073E1,-4.365583831E0,-1.351101503E1,2.106222707E1
8.121374792E0,1.569398645E1,-3.966350857E0,-1.413781082E1,2.149211122E1
8.131309792E0,1.566849727E1,-4.353358180E0,-1.476699578E1,2.196628550E1
8.141244792E0,1.461109030E1,-4.701637933E0,-1.457502584E1,2.116650036E1
8.151180792E0,1.233551535E1,-6.350321782E0,-1.277213630E1,1.885786285E1
8.161115792E0,9.474939925E0,-8.376191386E0,-1.003929388E1,1.614690343E1
8.171050792E0,7.534846051E0,-9.030724028E0,-7.244722413E0,1.381353989E1
8.180986792E0,6.537456071E0,-8.711713391E0,-4.918572557E0,1.195092624E1
8.190921792E0,5.899089226E0,-8.465119935E0,-3.623561640E0,1.093561650E1
8.200857792E0,5.024662099E0,-8.740058938E0,-2.494922719E0,1.038559092E1
8.210792792E0,3.808445921E0,-9.664935842E0,-1.515350229E0,1.049816801E1
8.220727792E0,2.985068495E0,-1.066248896E1,-6.058329374E-1,1.108901881E1
8.230664292E0,3.029699122E0,-1.142349823E1,8.413327637E-1,1.184834290E1
8.240599292E0,3.906320710E0,-1.200644341E1,1.584148715E0,1.272491855E1
8.250535292E0,5.572935630E0,-1.218098981E1,1.849178442E0,1.352233653E1
8.260470292E0,7.616674910E0,-1.201633807E1,2.771260377E0,1.449434377E1
8.270405292E0,9.483893182E0,-1.214749813E1,4.542487248E0,1.606673990E1
8.280341292E0,1.147662018E1,-1.230875381E1,6.609570367E0,1.808050474E1
8.290276292E0,1.337250151E1,-1.174683288E1,8.712784601E0,1.981727768E1
8.300211292E0,1.530795211E1,-1.010284493E1,9.988573966E0,2.088474283E1
8.310147292E0,1.718757934E1,-7.903697770E0,1.011413006E1,2.145173533E1
8.320082292E0,1.812357355E1,-6.342622753E0,9.280776697E0,2.132664057E1
8.330018292E0,1.717215906E1,-6.393211108E0,8.214042249E0,2.008050510E1
8.339953292E0,1.343080877E1,-8.197499306E0,7.474521496E0,1.741993372E1
8.349888292E0,8.563074245E0,-9.980922300E0,6.843991674E0,1.482515675E1
8.359824292E0,3.891783362E0,-1.067634569E1,6.411998797E0,1.304776087E1
8.369759292E0,3.515954161E-1,-1.041887641E1,6.369821661E0,1.221684219E1
8.379694292E0,-1.189652862E0,-8.993490129E0,6.606280723E0,1.122234751E1
8.389630292E0,-8.117970157E-1,-6.591531706E0,6.671477762E0,9.413602932E0
8.399565292E0,2.643742543E-1,-4.083648634E0,6.742272341E0,7.886971297E0
8.409501292E0,1.426382650E0,-2.419822251E0,6.663817910E0,7.231637182E0
8.419436292E0,2.070744646E0,-1.441757319E0,6.261107304E0,6.750415708E0
8.429371292E0,2.560976960E0,-8.264653409E-1,4.896184153E0,5.586972992E0
8.439307292E0,3.071364042E0,-5.290993416E-1,2.890300916E0,4.250536740E0
8.449242292E0,3.364114249E0,-3.948572105E-1,1.202652392E0,3.594377509E0
8.459177292E0,4.333828188E0,-2.927858752E-1,2.218895549E-1,4.349370679E0
8.469113292E0,5.379342506E0,-2.947066855E-1,-3.837194341E-1,5.401057159E0
8.479048292E0,5.885620165E0,-4.296516520E-1,-8.450191408E-1,5.961474869E0
8.488984292E0,6.140799088E0,-7.688451236E-1,-1.205107638E0,6.304983797E0
8.498919292E0,6.373073298E0,-1.042513527E0,-1.345113369E0,6.596379893E0
8.508854292E0,6.820650174E0,-1.103297088E0,-1.227423536E0,7.017485433E0
8.518790292E0,6.512948052E0,-1.312941989E0,-8.352811879E-1,6.696267890E0
8.528725292E0,5.131489559E0,-2.312909421E0,9.003191829E-2,5.629373041E0
8.538660292E0,3.802126835E0,-3.268136297E0,1.473460630E0,5.225702781E0
8.548596292E0,3.131941196E0,-3.517244056E0,2.352873093E0,5.264605702E0
8.558531292E0,3.304984281E0,-3.162903957E0,2.769160641E0,5.347441743E0
8.568467292E0,3.571744199E0,-2.563263806E0,3.052641842E0,5.352223854E0
8.578402292E0,3.454430342E0,-2.686804948E0,3.147821649E0,5.390806151E0
8.588337292E0,3.251684572E0,-3.301797549E0,3.279746529E0,5.677328324E0
8.598273292E0,2.522386799E0,-4.169062421E0,3.377439469E0,5.928795325E0
8.608208292E0,1.350859136E0,-4.999392187E0,3.290385538E0,6.135583072E0
8.618143292E0,5.864845008E-2,-5.383409244E0,3.089222023E0,6.207078817E0
8.628079292E0,-8.005387866E-1,-5.515154614E0,3.067463365E0,6.361377544E0
8.638014292E0,-1.201236196E0,-5.636329973E0,3.415797204E0,6.699168194E0
8.647950292E0,-9.830169386E-1,-5.813287184E0,2.981633255E0,6.606872713E0
8.657885292E0,-3.956951165E-1,-6.126337169E0,2.482942944E0,6.622204119E0
8.667820292E0,2.107523632E-1,-6.025755705E0,2.317991528E0,6.459661995E0
8.677756292E0,5.154589570E-1,-6.197428202E0,1.147652897E0,6.323837555E0
8.687691292E0,7.699704203E-1,-6.265458217E0,-2.566483283E-1,6.317807332E0
8.697627292E0,9.073399347E-1,-6.232681065E0,-1.125174153E0,6.398093145E0
8.707562292E0,7.426975447E-1,-6.362475804E0,-2.148826902E0,6.756489847E0
8.717497292E0,4.340864727E-1,-6.269679322E0,-3.107152510E0,7.010827811E0
8.727433292E0,-6.319349080E-2,-6.172098649E0,-3.735312164E0,7.214662300E0
8.737368292E0,-5.634961724E-1,-6.614231767E0,-3.586392352E0,7.545051352E0
8.747303292E0,-6.523115775E-1,-7.493525532E0,-2.798842570E0,8.025705889E0
8.757239292E0,5.116734695E-1,-8.031610290E0,-1.404053888E0,8.169451689E0
8.767174292E0,2.034337542E0,-7.179827675E0,-6.999859732E-1,7.495227484E0
8.777109292E0,2.431450024E0,-6.078779426E0,-1.193248461E0,6.654874185E0
8.787045292E0,1.772975188E0,-6.319484151E0,-2.618773763E0,7.066632648E0
8.796980292E0,5.363949126E-1,-7.283253810E0,-4.372082427E0,8.511674941E0
8.806916292E0,-5.305862886E-1,-8.662751146E0,-5.288801880E0,1.016347404E1
8.816851292E0,-1.044472929E0,-1.038891411E1,-5.089127651E0,1.161549312E1
8.826786292E0,-8.589109558E-1,-1.149932843E1,-4.574609511E0,1.240561706E1
8.836722292E0,2.465349841E-1,-1.158115787E1,-4.603413481E0,1.246496742E1
8.846657292E0,2.638268380E0,-1.035833434E1,-5.074687952E0,1.183249797E1
8.856593292E0,4.934453595E0,-8.151575274E0,-6.036799926E0,1.128006937E1
8.866528292E0,6.617671099E0,-6.606034555E0,-7.616073232E0,1.205976098E1
8.876463292E0,8.079880224E0,-5.735850753E0,-9.028484545E0,1.340514757E1
8.886399292E0,9.482053063E0,-4.827349853E0,-1.034290354E1,1.483874289E1
8.896334292E0,9.654029031E0,-3.968431881E0,-1.195826586E1,1.587289673E1
8.906269292E0,9.300865391E0,-3.841198222E0,-1.331197815E1,1.668741031E1
8.916205292E0,8.859449726E0,-4.422095416E0,-1.378664810E1,1.697399314E1
8.926140292E0,8.518605586E0,-5.043099539E0,-1.379844310E1,1.698224149E1
8.936076292E0,8.677349889E0,-5.793014302E0,-1.373002483E1,1.724439032E1
8.946011292E0,9.358827671E0,-6.531201890E0,-1.377873097E1,1.789127387E1
8.955946292E0,1.148478290E1,-6.473491040E0,-1.298903409E1,1.850733182E1
8.965882292E0,1.297219177E1,-5.915043939E0,-1.161840815E1,1.839165332E1
8.975817292E0,1.257073013E1,-6.381511999E0,-1.080159188E1,1.776010525E1
8.985752292E0,1.174753104E1,-7.404354908E0,-9.680701690E0,1.692763842E1
8.995688292E0,1.032929590E1,-8.117454432E0,-8.020944968E0,1.539230257E1
9.005623292E0,8.410044426E0,-9.168820059E0,-6.624087249E0,1.409519920E1
9.015559292E0,6.619063321E0,-1.037798683E1,-4.631883574E0,1.315176625E1
9.025494292E0,5.338909594E0,-1.138138307E1,-2.260754888E0,1.277305167E1
9.035429292E0,4.581741945E0,-1.192143425E1,-2.502886042E-1,1.277402044E1
9.045365292E0,4.789723898E0,-1.193148211E1,1.284163455E0,1.292094408E1
9.055300292E0,6.232154231E0,-1.156010439E1,2.503345048E0,1.336946133E1
9.065235292E0,8.118799877E0,-1.105768706E1,3.002677385E0,1.404291373E1
9.075171292E0,9.776488438E0,-1.037490301E1,3.145121990E0,1.459829206E1
9.085106292E0,1.091953256E1,-1.048063587E1,3.587309487E0,1.555470054E1
9.095042292E0,1.109806442E1,-1.138711568E1,4.818507401E0,1.661479615E1
9.104977292E0,1.100336760E1,-1.271364075E1,6.473646576E0,1.801718235E1
9.114912292E0,1.097770651E1,-1.347620188E1,8.243953096E0,1.923748476E1
9.124848292E0,1.138339919E1,-1.265438741E1,9.670628691E0,1.957642350E1
9.134783292E0,1.165614608E1,-1.066667790E1,1.059708902E1,1.902477476E1
9.144718292E0,1.136778830E1,-8.656694015E0,1.057289558E1,1.777501288E1
9.154654292E0,1.057503332E1,-7.466720726E0,9.778822061E0,1.622370516E1
9.164589292E0,8.392028570E0,-7.411589084E0,9.025656247E0,1.438124706E1
9.174525292E0,5.288745747E0,-7.590210997E0,8.775590714E0,1.275120100E1
9.184460292E0,2.420998710E0,-7.575245048E0,8.568275344E0,1.169020593E1
9.194395292E0,1.546506679E-1,-7.368575796E0,8.220429162E0,1.104061962E1
9.204331292E0,-5.615899801E-1,-6.706809563E0,7.227807003E0,9.876126360E0
9.214266292E0,4.944177514E-1,-5.397463027E0,5.760810762E0,7.909740620E0
9.224202292E0,1.910208755E0,-3.782786584E0,4.113692213E0,5.905999954E0
9.234136542E0,3.524565940E0,-2.266545094E0,2.471083621E0,4.864776047E0
9.244071542E0,5.118369577E0,-9.689181322E-1,1.454270945E0,5.408457586E0
9.254007542E0,6.147736225E0,7.000871301E-3,1.379714853E0,6.300660503E0
9.263942542E0,6.303890796E0,3.129014665E-1,1.787803727E0,6.559968648E0
9.273877542E0,5.811565763E0,-1.670233762E-1,2.471771838E0,6.317582564E0
9.283813542E0,5.198953564E0,-1.010515224E0,3.343572981E0,6.263364867E0
9.293748542E0,4.755658604E0,-1.845544982E0,3.719980472E0,6.313523560E0
9.303684542E0,4.719921591E0,-2.459516659E0,3.506994472E0,6.373844385E0
9.313619542E0,4.865645900E0,-2.716059737E0,2.688520521E0,6.187053670E0
9.323554542E0,5.310926574E0,-2.616399209E0,1.786510908E0,6.184101157E0
9.333490542E0,6.279601462E0,-2.116034839E0,1.124141827E0,6.721212154E0
9.343425542E0,7.687572400E0,-1.268903099E0,6.547258928E-1,7.819050484E0
9.353360542E0,8.398928869E0,-9.371145415E-1,5.208910203E-1,8.467084342E0
9.363296542E0,8.231097992E0,-1.404779527E0,6.165345114E-1,8.372842676E0
9.373231542E0,7.789301088E0,-1.989854849E0,8.195451611E-1,8.081113044E0
9.383167542E0,6.961340030E0,-2.606961218E0,1.296456349E0,7.545680941E0
9.393102542E0,5.899599103E0,-3.430509383E0,1.777483099E0,7.052170615E0
9.403037542E0,4.421052273E0,-4.393373308E0,1.548130012E0,6.422159976E0
9.412973542E0,2.878215014E0,-4.985686898E0,7.312130284E-1,5.803091246E0
9.422908542E0,1.734524483E0,-4.877126323E0,-2.445481733E-1,5.182155938E0
9.432843542E0,8.856900340E-1,-4.717782680E0,-1.125876696E0,4.930468394E0
9.442779542E0,2.480847886E-1,-4.743709234E0,-1.512919103E0,4.985303157E0
9.452714542E0,-5.420865923E-2,-5.012616835E0,-1.417772040E0,5.209543518E0
9.462650542E0,2.279297286E-1,-4.895815194E0,-2.283795257E-1,4.906436138E0
9.472585542E0,3.006731844E-1,-4.326848366E0,4.919747847E-1,4.365095685E0
9.482520542E0,2.185309142E-2,-4.632195230E0,7.025809675E-2,4.632779555E0
9.492456542E0,-6.626260659E-1,-5.517914500E0,-4.842020810E-1,5.578611421E0
9.502391542E0,-2.105911555E0,-6.244850290E0,-1.340128764E0,6.725248228E0
9.512326542E0,-3.157181287E0,-6.726921061E0,-1.621096101E0,7.605735547E0
9.522262542E0,-3.958238722E0,-7.067875714E0,-1.106566266E0,8.176002067E0
9.532197542E0,-4.385359699E0,-7.627415076E0,-4.880530572E-1,8.811755570E0
9.542133542E0,-4.230677456E0,-8.679144400E0,8.062111706E-2,9.655707070E0
9.552068542E0,-3.429046410E0,-9.663789788E0,5.518809709E-1,1.026897098E1
9.562003542E0,-1.856211765E0,-1.010869799E1,8.913400523E-1,1.031628733E1
9.571939542E0,-2.851730928E-1,-1.005087020E1,9.852744024E-1,1.010307286E1
9.581874542E0,6.618907785E-1,-9.611025683E0,3.214125274E-1,9.639150383E0
9.591809542E0,9.650642323E-1,-9.040517530E0,-1.731507320E0,9.255291664E0
9.601745542E0,8.314296269E-1,-9.388961297E0,-4.354630827E0,1.038299952E1
9.611680542E0,4.026439476E-1,-1.029780747E1,-6.318023517E0,1.208819184E1
9.621616542E0,2.523383456E-1,-1.087874589E1,-6.602627968E0,1.272813745E1
9.631551542E0,1.390467882E-1,-1.203697991E1,-5.310814308E0,1.315724013E1
9.641486542E0,4.775532120E-1,-1.325222662E1,-3.687863470E0,1.376408022E1
9.651422542E0,1.638661721E0,-1.367188713E1,-3.033107464E0,1.409983868E1
9.661357542E0,3.898716406E0,-1.305531578E1,-3.433549351E0,1.405099715E1
9.671292542E0,6.882806661E0,-1.118052537E1,-4.639345790E0,1.392482332E1
9.681228542E0,1.095638756E1,-7.984381160E0,-7.031663908E0,1.527210097E1
9.691163542E0,1.482819508E1,-4.706468902E0,-1.000746983E1,1.849799100E1
9.701099542E0,1.675087536E1,-2.625303641E0,-1.241032931E1,2.101190896E1
9.711034542E0,1.661386808E1,-1.849979510E0,-1.318349260E1,2.128961047E1
9.720969542E0,1.525277544E1,-2.150490727E0,-1.320849763E1,2.029128332E1
9.730905542E0,1.330851659E1,-3.170729286E0,-1.353050731E1,1.924174540E1
9.740840542E0,1.123814266E1,-4.412696602E0,-1.364547058E1,1.821995086E1
9.750775542E0,9.349636433E0,-5.797326624E0,-1.296031256E1,1.699983527E1
9.760711542E0,8.356982113E0,-7.228495220E0,-1.109463094E1,1.565826072E1
9.770646542E0,9.057264540E0,-7.791870940E0,-7.683112729E0,1.420484125E1
9.780582542E0,9.823236927E0,-8.010125281E0,-5.597963467E0,1.385623635E1
9.790517542E0,9.704692231E0,-8.530108813E0,-5.043729869E0,1.387022057E1
9.800452542E0,8.666146039E0,-8.926351229E0,-5.203115028E0,1.348533423E1
9.810388542E0,7.023504703E0,-9.488776191E0,-5.832495872E0,1.316755482E1
9.820323542E0,5.076425160E0,-1.017132752E1,-6.058752712E0,1.288155582E1
9.830259542E0,2.977422675E0,-1.099589603E1,-6.038116719E0,1.289316209E1
9.840194542E0,2.355366054E0,-1.120736877E1,-5.744209932E0,1.281205728E1
9.850129542E0,2.808861482E0,-1.056563217E1,-4.799337305E0,1.193967858E1
9.860065542E0,3.976914729E0,-1.060916469E1,-3.124067920E0,1.175287312E1
9.870000542E0,6.350407151E0,-1.097841402E1,-1.247536789E0,1.274400225E1
9.879935542E0,9.629321621E0,-1.098559206E1,-1.408225876E-1,1.460913751E1
9.889871542E0,1.266993165E1,-1.109707040E1,9.575412047E-1,1.686976658E1
9.899806542E0,1.455577213E1,-1.247343714E1,2.655336403E0,1.935220783E1
9.909742542E0,1.661991995E1,-1.407133733E1,5.227987329E0,2.239544875E1
9.919677542E0,1.755976397E1,-1.470142277E1,8.800875828E0,2.453431388E1
9.929612542E0,1.796222548E1,-1.397223053E1,1.198512563E1,2.571979796E1
9.939548542E0,1.866211030E1,-1.223585541E1,1.376803290E1,2.622116032E1
9.949483542E0,1.869212874E1,-1.046310124E1,1.432175019E1,2.576790044E1
9.959418542E0,1.675870946E1,-9.540048671E0,1.342223909E1,2.349517767E1
9.969354542E0,1.391512546E1,-9.384711540E0,1.149951086E1,2.034557144E1
9.979289542E0,1.058475490E1,-9.625341421E0,9.020183837E0,1.691295215E1
9.989225542E0,7.110138804E0,-9.920629320E0,7.395373001E0,1.427110724E1
9.999160542E0,5.186593135E0,-9.647149782E0,6.699532703E0,1.283946984E1
1.000909554E1,4.179451754E0,-8.729169084E0,6.666193634E0,1.175178061E1
1.001903154E1,3.022721640E0,-7.435357431E0,6.953309464E0,1.061931724E1
1.002896654E1,2.417782157E0,-5.810778728E0,7.104420227E0,9.491238420E0
1.003890254E1,2.317348334E0,-4.132792143E0,6.883217136E0,8.356359993E0
1.004883754E1,2.357683598E0,-2.817587866E0,6.263037470E0,7.261068219E0
1.005877254E1,2.202659585E0,-2.161194640E0,5.365155407E0,6.189294310E0
1.006870854E1,2.065202947E0,-2.111407937E0,4.256854271E0,5.181111365E0
1.007864354E1,1.519338176E0,-2.275825210E0,2.739639804E0,3.872130568E0
1.008857854E1,1.123688668E0,-2.619161434E0,1.531879284E0,3.235635483E0
1.009851454E1,1.218514718E0,-2.809365512E0,9.665511793E-1,3.211157716E0
1.010844954E1,9.658825502E-1,-3.032493507E0,6.395707870E-1,3.246228082E0
1.011838554E1,7.298278230E-1,-3.586955731E0,2.996879286E-1,3.672698316E0
1.012832054E1,-1.973926449E-1,-4.144118199E0,-2.703974712E-1,4.157618826E0
1.013825554E1,-9.663038421E-1,-4.527783254E0,-5.188962427E-1,4.658735625E0
1.014819154E1,-1.442011673E0,-4.460481218E0,-6.038513160E-1,4.726513172E0
1.015812654E1,-1.253122049E0,-3.741793510E0,-8.074376240E-1,4.027814427E0
1.016806154E1,-6.439825112E-1,-2.890542406E0,-1.462994260E0,3.303074489E0
1.017799754E1,-4.216661096E-2,-2.381002001E0,-2.414456846E0,3.391246144E0
1.018793254E1,4.646852446E-1,-1.784084314E0,-3.021834033E0,3.539826286E0
1.019786854E1,2.158990824E-1,-1.486832920E0,-3.546457915E0,3.851577377E0
1.020780354E1,-6.786582541E-1,-1.956231020E0,-4.026947014E0,4.528103255E0
1.021773854E1,-2.196196950E0,-2.936293945E0,-3.741968341E0,5.239029514E0
1.022767454E1,-3.461974712E0,-3.302396303E0,-2.809247690E0,5.548239616E0
1.023760992E1,-3.365482498E0,-2.879378318E0,-1.989497876E0,4.855449901E0
1.024754492E1,-2.445146249E0,-2.004298056E0,-1.337272545E0,3.432819357E0
1.025748092E1,-1.068928616E0,-1.107577250E0,-1.422356550E0,2.095813424E0
1.026741592E1,1.581084189E-1,-7.722704226E-1,-2.150295722E0,2.290233955E0
1.027735192E1,5.110384619E-1,-5.585482585E-1,-2.563632181E0,2.673078081E0
1.028728692E1,3.176362494E-1,-6.706124854E-1,-2.801513870E0,2.898119021E0
1.029722192E1,-5.413302550E-1,-1.066917467E0,-2.927732745E0,3.162747279E0
1.030715792E1,-8.739774764E-1,-9.495936692E-1,-2.701965609E0,2.994358515E0
1.031709292E1,-7.844545582E-1,-3.030500776E-1,-1.720298792E0,1.914846270E0
1.032702792E1,-9.586773187E-1,3.077389598E-1,-1.104020973E0,1.494198039E0
1.033696392E1,-1.217403747E0,3.484373349E-1,-1.143741109E0,1.706348202E0
1.034689892E1,-1.558361909E0,-8.987971526E-1,-1.380351030E0,2.267531064E0
1.035683492E1,-6.673842376E-1,-1.041679130E0,-1.608772509E0,2.029444780E0
1.036676992E1,1.338310719E-1,-6.552974582E-1,-1.619915548E0,1.752555819E0
1.037670492E1,7.695929825E-2,-7.574068004E-1,-1.738412297E0,1.897805340E0
1.038664092E1,-3.545719412E-1,-7.759886670E-1,-1.472236515E0,1.701575749E0
1.039657592E1,-5.384288666E-1,-3.492448354E-1,-3.835539579E-1,7.476571661E-1
1.040651092E1,2.120902061E-2,2.552549368E-1,7.311352605E-1,7.747023134E-1
1.041644692E1,6.754165578E-1,5.256056303E-1,1.420514385E0,1.658405837E0
1.042638192E1,1.271181759E0,2.728293282E-1,1.178999235E0,1.755100596E0
1.043631792E1,1.772526122E0,-3.179172081E-1,3.929176891E-1,1.843177831E0
1.044625292E1,1.445313449E0,1.472434151E-1,-1.367500019E-1,1.459216280E0
1.045618792E1,1.677592483E0,3.396630031E-1,5.567940938E-1,1.799918653E0
1.046612392E1,1.230172751E0,5.939344382E-1,1.417452782E0,1.968566866E0
1.047605892E1,6.865457095E-1,4.595619142E-1,6.952187383E-1,1.079755184E0
1.048599392E1,5.309309819E-1,2.033071035E-1,4.401281083E-1,7.189813889E-1
1.049592992E1,9.213166805E-1,3.804753989E-1,1.675622556E0,1.949691490E0
1.050586492E1,1.182747446E0,6.446189806E-1,2.471946670E0,2.815127971E0
1.051580092E1,1.601958456E0,6.886081687E-1,1.436283156E0,2.259062064E0
1.052573592E1,2.296358000E0,5.544043368E-1,1.145190049E0,2.625277982E0
1.053567092E1,1.882323530E0,4.282708320E-1,1.229286459E0,2.288602843E0
1.054560692E1,9.340532318E-1,-1.933639133E-1,3.332374978E-1,1.010392138E0
1.055554192E1,3.053505184E-1,-8.489627954E-1,-3.231498814E-1,9.583332473E-1
1.056547692E1,-9.757058725E-2,-1.046773809E0,-1.165233135E-1,1.057749076E0
1.057541292E1,-4.045847847E-1,-8.975095958E-1,6.284587383E-1,1.167978043E0
1.058534792E1,-1.270035705E-1,-4.051272601E-1,1.849252701E0,1.897364898E0
1.059528392E1,7.435532847E-1,7.030575156E-2,2.686456454E0,2.788344072E0
1.060521892E1,1.248681235E0,9.556396902E-2,2.381700159E0,2.690879586E0
1.061515392E1,1.282469663E0,1.429112130E-1,1.141716803E0,1.722982678E0
1.062508992E1,9.094880556E-1,8.093616503E-1,-5.206957233E-1,1.324144569E0
1.063502492E1,3.577966441E-1,1.344253829E0,-1.547220039E0,2.080607278E0
1.064496092E1,2.360431789E-1,1.359032081E0,-2.058482450E0,2.477909316E0
1.065489592E1,3.612883455E-1,1.100934228E0,-1.763771671E0,2.110326030E0
1.066483092E1,8.239875832E-1,1.095583441E0,-8.954589772E-1,1.637408133E0
1.067476692E1,1.403025947E0,1.051013040E0,1.358325738E-1,1.758283455E0
1.068470192E1,1.477802918E0,8.788873833E-1,1.121092504E0,2.052606368E0
1.069463692E1,1.403894843E0,5.031295180E-1,1.734780006E0,2.287689165E0
1.070457292E1,1.347639074E0,1.436859691E-1,1.998310508E0,2.414543770E0
1.071450792E1,1.159658400E0,-1.089640331E-1,2.085752109E0,2.388941738E0
1.072444292E1,7.178318216E-1,-4.631930351E-2,1.962630213E0,2.090297910E0
1.073437892E1,2.829160858E-1,1.472714818E-1,1.770808210E0,1.799303231E0
1.074431392E1,2.160584190E-1,1.368008727E-1,1.348210639E0,1.372249120E0
1.075424992E1,2.618966429E-1,1.893474609E-1,1.030410960E0,1.079902338E0
1.076418492E1,4.362721619E-1,4.168310469E-1,8.354911029E-1,1.030595412E0
1.077411992E1,6.786787194E-1,6.963513440E-1,8.357132971E-1,1.282157055E0
1.078405592E1,8.642906865E-1,7.976794982E-1,8.303823906E-1,1.439731186E0
1.079399092E1,1.011983314E0,7.680142343E-1,6.853088772E-1,1.443469553E0
1.080392692E1,9.218771361E-1,7.143970209E-1,5.745602739E-1,1.300130788E0
1.081386192E1,5.367239647E-1,5.933087862E-1,4.491573787E-1,9.175130957E-1
1.082379692E1,3.142270668E-1,4.637198693E-1,4.272642338E-1,7.045065594E-1
1.083373292E1,2.685721166E-1,3.703509450E-1,5.562772000E-1,7.202326898E-1
1.084366792E1,2.715708977E-1,2.103073901E-1,6.644600451E-1,7.479887047E-1
1.085360292E1,3.079137915E-1,-4.464758456E-2,5.775616497E-1,6.560348840E-1
1.086353892E1,4.826137214E-1,-2.021791756E-1,3.736060899E-1,6.429416253E-1
1.087347392E1,7.811928351E-1,-3.099275726E-1,4.800452954E-1,9.678640563E-1
1.088340992E1,9.498389599E-1,-3.129505831E-1,6.326254642E-1,1.183362622E0
1.089334492E1,8.620731300E-1,-3.173950517E-1,7.830392396E-1,1.207087466E0
1.090327992E1,5.945519042E-1,-3.235299504E-1,8.538209546E-1,1.089575063E0
1.091321592E1,4.307203768E-1,-3.544137740E-1,8.744113398E-1,1.037171325E0
1.092315092E1,3.543260658E-1,-3.676992327E-1,6.404192179E-1,8.190765906E-1
1.093308592E1,3.494655678E-1,-4.370612437E-1,3.564029968E-1,6.634544520E-1
1.094302192E1,3.920262811E-1,-5.060753453E-1,7.465841889E-2,6.444926219E-1
1.095295692E1,5.038196357E-1,-4.870976222E-1,-1.667017794E-1,7.203386718E-1
1.096289292E1,2.802631858E-1,-4.327395666E-1,-8.750826001E-1,1.015667536E0
1.097282792E1,-6.262825508E-1,-2.986646658E-1,-3.563787893E0,3.630704417E0
1.098276292E1,-5.016916877E-1,-3.034377480E-1,-1.007219149E0,1.165443877E0
1.099269892E1,3.449443544E-1,-4.110154063E-1,1.023997149E0,1.156066795E0
1.100263392E1,4.596452370E-1,-2.636608940E-1,1.366513009E0,1.465656377E0
1.101256892E1,3.221479610E-2,-1.715491211E-1,1.078772112E0,1.092801978E0
1.102250492E1,5.180340707E-3,-3.122880936E-2,3.398448515E-1,3.413159790E-1