"Time (s)","Linear Acceleration x (m/s^2)","Linear Acceleration y (m/s^2)","Linear Acceleration z (m/s^2)","Absolute acceleration (m/s^2)"
5.256666656E-3,-8.093148726E-1,6.532310522E-1,-1.329182045E0,1.687728142E0
1.519266664E-2,-8.060869172E-1,6.811035597E-1,-1.425121990E0,1.773316347E0
2.512766665E-2,-1.051612964E0,7.479021513E-1,-1.348288407E0,1.866314305E0
3.506266666E-2,-9.805669552E-1,7.410626632E-1,-1.260007730E0,1.760200246E0
4.499866665E-2,-6.335548791E-1,6.488807237E-1,-1.376008303E0,1.647979620E0
5.493366666E-2,-3.524346377E-1,6.557500327E-1,-1.317968255E0,1.513690391E0
6.486966665E-2,-2.007240229E-1,6.861713415E-1,-1.028633991E0,1.252680778E0
7.480466666E-2,3.142707382E-1,3.874335855E-1,-1.124653459E0,1.230331777E0
8.473966666E-2,4.217618943E-1,-4.147430062E-3,-1.388980935E0,1.451608878E0
9.467566665E-2,4.163176614E-1,-1.418885350E-1,-1.284000610E0,1.357243647E0
1.046106667E-1,1.658173441E0,-2.859946266E-1,-1.417797768E0,2.200336929E0
1.145466666E-1,2.852102811E0,-3.304694259E-1,-1.430996103E0,3.208029042E0
1.244816667E-1,2.197570022E0,-5.525884840E-1,-1.085126281E0,2.512402651E0
1.344166667E-1,3.137175185E-1,-4.941575503E-1,-7.231333458E-1,9.303398314E-1
1.443526667E-1,-1.361847954E0,-1.456149656E-1,4.273928726E-1,1.434746750E0
1.542876667E-1,-1.652556752E0,-3.810148045E-1,1.202553574E0,2.079002453E0
1.642236667E-1,-7.823763116E-1,-5.768728477E-1,2.213982718E0,2.417977347E0
1.741586667E-1,5.840751556E-1,-8.180523670E-1,2.792071202E0,2.967493060E0
1.840936667E-1,1.726151270E0,-9.750486454E-1,2.998297820E0,3.594455159E0
1.940296667E-1,2.078174703E0,-1.010004470E0,2.961289623E0,3.756082448E0
2.039646667E-1,2.620407183E0,-8.184070006E-1,2.943339840E0,4.024869344E0
2.139006667E-1,2.863616563E0,-7.235560995E-1,2.724959784E0,4.018611585E0
2.238356667E-1,2.080713564E0,-6.623644030E-1,2.214631759E0,3.110094752E0
2.337706666E-1,9.144545344E-1,-7.619354689E-1,5.271627438E-1,1.301796187E0
2.437066667E-1,4.287690148E-2,3.115045667E-1,-1.287160445E0,1.325011523E0
2.536416667E-1,-5.549463737E-1,9.877537680E-1,1.399746829E0,1.800809309E0
2.635776667E-1,-8.894460661E-1,1.345593718E0,1.818656561E0,2.430894577E0
2.735126667E-1,4.489917928E-1,2.605111744E0,2.972718590E-1,2.660182585E0
2.834476666E-1,7.272587027E-1,2.317192799E0,-8.534069717E-2,2.430138004E0
2.933836667E-1,-3.844031198E-1,1.443230817E0,-8.816665649E-2,1.496146487E0
3.033186666E-1,-3.394800583E-1,1.615427810E0,-4.133922994E-1,1.701689429E0
3.132546667E-1,-1.422359327E-1,1.881073249E0,3.456996685E-1,1.917857109E0
3.231896667E-1,2.375133882E-1,1.570265670E0,1.868370758E0,2.452132984E0
3.331246666E-1,9.191757225E-1,1.050642473E0,3.294777381E0,3.578308484E0
3.430606667E-1,1.405432369E0,7.290988214E-1,4.261843116E0,4.546441683E0
3.529956666E-1,1.698473767E0,2.895041254E-1,4.779808189E0,5.080865291E0
3.629316667E-1,1.372317394E0,-5.812103122E-2,4.846689811E0,5.037562428E0
3.728671666E-1,8.204356190E-1,-1.655802834E-1,4.201629658E0,4.284182912E0
3.828021667E-1,3.692566386E-1,-1.300318435E-1,3.263115293E0,3.286514896E0
3.927381666E-1,-6.303880271E-1,7.116792351E-2,2.726060815E0,2.798903625E0
4.026731667E-1,-6.890350154E-1,-4.427862525E-1,1.629568132E0,1.823820499E0
4.126091667E-1,-1.290144280E-1,-4.413095382E-1,9.616804487E-1,1.065940015E0
4.225441666E-1,1.319788494E0,-3.224508467E-1,5.663823581E0,5.824492576E0
4.324791667E-1,2.921584982E0,-9.826778001E-1,8.161338370E0,8.724033383E0
4.424151666E-1,-2.830334504E-1,-9.989915317E-1,3.904986375E0,4.040669574E0
4.523501667E-1,-1.293742218E0,-2.481195211E0,3.962928189E0,4.851278020E0
4.622861667E-1,-8.039294408E-1,-2.909582695E0,3.862802807E0,4.902368767E0
4.722211667E-1,-1.530949285E0,-3.854070575E0,3.564912897E0,5.468662513E0
4.821561667E-1,-1.818218458E0,-4.264921675E0,2.971896472E0,5.507054012E0
4.920921666E-1,-1.045410823E0,-3.032327153E0,2.851192984E0,4.291525741E0
5.020271667E-1,-1.071142957E0,-2.393307467E0,2.954497497E0,3.950230794E0
5.119631666E-1,-2.969552323E-1,-2.721375441E0,2.228393766E0,3.529844965E0
5.218981667E-1,-3.306815337E-1,-3.318646300E0,1.784257976E0,3.782372281E0
5.318331667E-1,-1.302016612E0,-4.120037611E0,2.065087464E0,4.789002340E0
5.417691667E-1,-2.745189396E0,-5.359958986E0,2.350236291E0,6.464428496E0
5.517041667E-1,-3.870499497E0,-6.700062461E0,2.473923029E0,8.123539776E0
5.616401666E-1,-4.446189453E0,-7.393189650E0,2.759462450E0,9.057730779E0
5.715751667E-1,-4.954779686E0,-7.370446905E0,3.126192799E0,9.415222288E0
5.815101667E-1,-3.729123763E0,-5.876507864E0,3.671795322E0,7.869039941E0
5.914461667E-1,-9.825193405E-1,-3.848068993E0,3.747521442E0,5.460484978E0
6.013811667E-1,2.958913314E-1,-4.767197499E0,3.640709184E0,6.005704542E0
6.113171667E-1,4.727298439E-2,-7.249625888E0,2.713596890E0,7.740989493E0
6.212521667E-1,-7.178619348E-1,-8.126262678E0,9.154412520E-1,8.209111009E0
6.311871667E-1,-1.751806075E0,-7.981367505E0,-9.741443735E-1,8.229216793E0
6.411231667E-1,-2.205045834E0,-7.682264882E0,-2.626984423E0,8.413112861E0
6.510581667E-1,-2.130872003E0,-7.289357718E0,-3.094873942E0,8.200828992E0
6.609941667E-1,-2.019546133E0,-7.278961954E0,-2.708497826E0,8.024824869E0
6.709291667E-1,-1.634497919E0,-8.076732084E0,-2.007896433E0,8.481558388E0
6.808641667E-1,-1.572708052E0,-9.139461190E0,-1.384975008E0,9.376636776E0
6.908001667E-1,-1.316434677E0,-9.942413707E0,-1.346160606E0,1.011912738E1
7.007351667E-1,-7.801942769E-1,-1.005180809E1,-1.880046186E0,1.025583360E1
7.106711667E-1,-1.047231938E-1,-9.486107522E0,-2.769277878E0,9.882616194E0
7.206061667E-1,8.279154503E-1,-8.480653648E0,-4.018401016E0,9.420959453E0
7.305411666E-1,2.068198476E0,-7.571433833E0,-5.641702979E0,9.666067853E0
7.404771667E-1,3.097883796E0,-7.360962136E0,-7.401225479E0,1.088847033E1
7.504121667E-1,3.665877939E0,-7.050405988E0,-8.804135651E0,1.186000380E1
7.603481667E-1,4.354689299E0,-6.455396247E0,-9.024917743E0,1.191992449E1
7.702831667E-1,5.325044677E0,-6.035709420E0,-8.779173303E0,1.191049004E1
7.802181666E-1,5.499885780E0,-5.410175459E0,-8.030074811E0,1.113556660E1
7.901541667E-1,5.666460090E0,-5.224399477E0,-7.278691227E0,1.060105966E1
8.000891666E-1,7.136197506E0,-4.690448701E0,-7.223839667E0,1.118523506E1
8.100251667E-1,9.067260940E0,-2.893784103E0,-8.048737954E0,1.246480606E1
8.199601667E-1,9.962148060E0,-1.537801929E0,-9.682849957E0,1.397736785E1
8.298951667E-1,1.031118590E1,-1.524278489E0,-1.129388066E1,1.536866032E1
8.398311667E-1,9.476996391E0,-2.459719557E0,-1.227635790E1,1.570263176E1
8.497661666E-1,8.004330690E0,-4.058693887E0,-1.247532929E1,1.536802352E1
8.597021667E-1,7.031110761E0,-5.589843439E0,-1.112385415E1,1.429765713E1
8.696371666E-1,6.556832575E0,-6.537948407E0,-8.775612348E0,1.275728007E1
8.795721667E-1,7.446576483E0,-6.313672603E0,-5.741144822E0,1.132584244E1
8.895081667E-1,8.415042041E0,-5.138419679E0,-3.185168108E0,1.036154357E1
8.994431667E-1,8.315069856E0,-4.274251784E0,-2.193097925E0,9.603087709E0
9.093791667E-1,7.743648368E0,-3.825594927E0,-3.160723238E0,9.197251653E0
9.193141666E-1,6.516456966E0,-3.901572770E0,-5.623069657E0,9.450153112E0
9.292491667E-1,4.558305135E0,-5.329374540E0,-8.228069134E0,1.081117479E1
9.391851666E-1,3.366475940E0,-6.411062658E0,-1.023676254E1,1.253898688E1
9.491201667E-1,4.604989890E0,-6.651718851E0,-1.050920771E1,1.326253152E1
9.590561667E-1,7.790275819E0,-5.581640965E0,-9.160770198E0,1.325755723E1
9.689911667E-1,1.079117448E1,-4.448559622E0,-7.840340849E0,1.406094143E1
9.789261667E-1,1.290284964E1,-4.175289414E0,-6.697034188E0,1.512504008E1
9.888621666E-1,1.401539468E1,-4.551939856E0,-5.776685368E0,1.582787220E1
9.987971667E-1,1.451129236E1,-5.639060622E0,-5.696876721E0,1.657802808E1
1.008733167E0,1.498144826E1,-7.791102616E0,-6.371740133E0,1.804838343E1
1.018668167E0,1.626137453E1,-1.102440120E1,-6.606618108E0,2.072720739E1
1.028603167E0,1.865049539E1,-1.528927376E1,-3.792218728E0,2.441277930E1
1.038539167E0,2.026006897E1,-1.975406496E1,2.948466679E0,2.844972641E1
1.048474167E0,2.057506549E1,-2.061172987E1,1.074352552E1,3.104190827E1
1.058410167E0,1.783868317E1,-2.103040923E1,1.686895988E1,3.232736514E1
1.068345167E0,1.321887644E1,-2.151319277E1,2.256265104E1,3.386191636E1
1.078280167E0,9.743537623E0,-1.909015105E1,2.654967560E1,3.412119088E1
1.088216167E0,5.648300977E0,-1.611964387E1,2.644854216E1,3.148446609E1
1.098151167E0,2.982251306E0,-1.359121193E1,2.253824242E1,2.648749207E1
1.108087167E0,1.448401510E0,-1.141531330E1,1.659334552E1,2.019273038E1
1.118022167E0,2.819047916E-1,-9.443340987E0,1.123539213E1,1.467958432E1
1.127957167E0,-5.468684453E-1,-8.466795162E0,7.734666460E0,1.148088632E1
1.137893167E0,-1.423447348E0,-7.829241080E0,5.506948632E0,9.677277586E0
1.147828167E0,-2.396206516E0,-6.634878286E0,4.180892508E0,8.200199857E0
1.157764167E0,-2.693937966E0,-5.228334653E0,3.586192669E0,6.888654649E0
1.167699167E0,-2.268386382E0,-4.126864235E0,3.291977150E0,5.745754846E0
1.177634167E0,-1.515769621E0,-3.453501804E0,3.197897204E0,4.944772875E0
1.187570167E0,-6.675310028E-1,-3.031312369E0,3.085809588E0,4.376833688E0
1.197505167E0,2.650425911E-2,-2.982920228E0,2.697448927E0,4.021783967E0
1.207441167E0,8.015304744E-1,-2.878209459E0,1.875693811E0,3.527714283E0
1.217376167E0,1.387395170E0,-2.673116616E0,7.438620177E-1,3.102216708E0
1.227311167E0,1.421511919E0,-2.634571186E0,1.376504731E-1,2.996766444E0
1.237247167E0,1.314022554E0,-2.897288924E0,2.220132235E-1,3.189079531E0
1.247182167E0,1.285885752E0,-3.269344332E0,8.164908680E-1,3.606767510E0
1.257118167E0,1.155324151E0,-3.415782001E0,1.683855143E0,3.979661885E0
1.267053167E0,8.191510588E-1,-3.506012725E0,2.820836872E0,4.573866454E0
1.276988167E0,3.866313475E-1,-3.704354957E0,3.787179598E0,5.311728415E0
1.286924167E0,5.371512499E-1,-3.725856339E0,4.042702922E0,5.523946400E0
1.296859167E0,1.320909405E0,-3.529242543E0,3.870307416E0,5.401817664E0
1.306795167E0,1.538481083E0,-3.408131504E0,3.291113516E0,4.981336424E0
1.316730167E0,1.489875226E0,-3.448130552E0,2.548981105E0,4.539453400E0
1.326666167E0,1.333187096E0,-3.374053347E0,2.251010211E0,4.269504747E0
1.336601167E0,9.184540299E-1,-3.394766523E0,2.267550230E0,4.184469094E0
1.346536167E0,5.211003506E-1,-3.493961613E0,2.783310903E0,4.497347320E0
1.356472167E0,1.826617545E-1,-3.622223212E0,3.201766891E0,4.837889782E0
1.366407167E0,1.766882390E-1,-3.893232887E0,3.123332048E0,4.994365238E0
1.376341667E0,5.715989515E-1,-3.964181247E0,3.116064252E0,5.074575326E0
1.386277667E0,7.532485530E-1,-3.787267891E0,2.664679084E0,4.691619771E0
1.396212667E0,6.289706621E-1,-3.753642892E0,1.346296553E0,4.037072388E0
1.406148667E0,4.703286847E-1,-3.874411869E0,2.793127209E-2,3.902954850E0
1.416083667E0,6.371605647E-1,-3.790111392E0,-1.045559050E0,3.982977739E0
1.426018667E0,1.209759975E0,-3.493059388E0,-1.754481322E0,4.091844058E0
1.435954667E0,1.739676757E0,-3.214210351E0,-1.968355806E0,4.151150200E0
1.445889667E0,2.235423288E0,-3.082365578E0,-1.735585460E0,4.184537218E0
1.455825667E0,2.532727015E0,-3.003523477E0,-1.923032869E0,4.374233055E0
1.465760667E0,2.311475976E0,-3.168937699E0,-3.225740768E0,5.078433895E0
1.475695667E0,2.400175898E0,-3.408560690E0,-4.759736452E0,6.327260182E0
1.485631667E0,2.674472293E0,-3.683214349E0,-5.633457820E0,7.242562875E0
1.495566667E0,2.768960082E0,-3.850922434E0,-6.042313265E0,7.681555385E0
1.505502667E0,2.874481274E0,-3.837939861E0,-6.544568624E0,8.113187010E0
1.515437667E0,2.759602490E0,-4.103574191E0,-7.115300142E0,8.664999893E0
1.525372667E0,2.153306161E0,-5.033406025E0,-7.451013935E0,9.246053877E0
1.535308667E0,1.311522285E0,-6.414965674E0,-7.159341955E0,9.701961272E0
1.545243667E0,5.539201874E-1,-7.735889697E0,-6.263706976E0,9.969194655E0
1.555179667E0,2.890050656E-1,-8.881407775E0,-5.201907578E0,1.029673591E1
1.565114667E0,7.563589793E-1,-9.232643588E0,-4.244663996E0,1.018974774E1
1.575049667E0,1.621611241E0,-8.485738971E0,-3.774376242E0,9.427794276E0
1.584985667E0,2.846559650E0,-7.008508934E0,-3.977810522E0,8.546641204E0
1.594920667E0,4.210596364E0,-5.054960032E0,-4.783278512E0,8.133971722E0
1.604856667E0,5.498906372E0,-3.218250777E0,-5.710976697E0,8.556305522E0
1.614791667E0,6.724776303E0,-2.019401414E0,-6.226344438E0,9.384453284E0
1.624726667E0,7.593324639E0,-1.420080813E0,-6.638894738E0,1.018578087E1
1.634662667E0,7.564615395E0,-1.313476717E0,-7.345872227E0,1.062593365E1
1.644597667E0,6.259938446E0,-2.240836348E0,-8.418008333E0,1.072711710E1
1.654533667E0,4.620735857E0,-4.061235672E0,-1.006946669E1,1.179995739E1
1.664468667E0,4.252416819E0,-5.014235344E0,-1.113267292E1,1.292911487E1
1.674403667E0,6.070858787E0,-4.109344516E0,-1.068749048E1,1.296011156E1
1.684339667E0,8.635255199E0,-2.554109698E0,-8.739853116E0,1.254894980E1
1.694274667E0,1.105542419E1,-1.455003017E0,-6.055871204E0,1.268909035E1
1.704210667E0,1.234031942E1,-9.394209757E-1,-4.292060064E0,1.309915168E1
1.714145667E0,1.188527039E1,-1.974521111E0,-4.263247909E0,1.278020613E1
1.724080667E0,9.565258357E0,-3.842000753E0,-5.311744015E0,1.159610977E1
1.734016667E0,6.759982973E0,-5.909017214E0,-6.443005997E0,1.105107146E1
1.743951667E0,4.441430989E0,-7.788780102E0,-7.463884242E0,1.166623215E1
1.753887667E0,4.109448304E0,-8.245203815E0,-7.667242801E0,1.198572332E1
1.763822667E0,5.595947932E0,-7.407929896E0,-6.889445590E0,1.156099127E1
1.773757667E0,8.200757375E0,-6.319900473E0,-4.948845931E0,1.147539278E1
1.783693667E0,1.047770057E1,-5.873861414E0,-2.421743646E0,1.225354232E1
1.793628667E0,1.205303636E1,-6.166594080E0,-9.085332052E-1,1.356937731E1
1.803564667E0,1.342042996E1,-6.273730858E0,-7.940404835E-1,1.483570489E1
1.813499667E0,1.469502006E1,-6.230833345E0,-1.984324845E0,1.608429184E1
1.823434667E0,1.699606431E1,-6.847284241E0,-3.992052878E0,1.875334610E1
1.833370667E0,1.866628638E1,-9.009534888E0,-5.014124247E0,2.132471355E1
1.843305667E0,1.829605004E1,-1.375273775E1,-3.199459288E0,2.311103162E1
1.853241667E0,1.803363285E1,-2.043564916E1,1.983287841E0,2.732692996E1
1.863176667E0,1.330909313E1,-2.446803876E1,9.900973320E0,2.956088892E1
1.873111667E0,6.483746472E0,-2.586821770E1,1.725848969E1,3.176569095E1
1.883047667E0,1.995897362E0,-2.326230547E1,2.316500781E1,3.288975599E1
1.892982667E0,-5.788872135E-1,-1.665118384E1,2.672389924E1,3.149228198E1
1.902918667E0,-7.655379385E-1,-1.156229125E1,2.478799607E1,2.736270045E1
1.912853667E0,-2.024311906E-1,-9.271577858E0,1.850534411E1,2.069905541E1
1.922788667E0,-5.614818066E-1,-7.480263462E0,1.176988378E1,1.395706872E1
1.932724667E0,-1.052940867E0,-5.996260010E0,6.038966904E0,8.575134975E0
1.942659667E0,-1.514624736E0,-5.571229413E0,2.022348411E0,6.117399640E0
1.952595667E0,-2.058097118E0,-5.949103385E0,-2.248912230E-1,6.299061112E0
1.962530667E0,-3.063262140E0,-5.755335429E0,-8.174987818E-1,6.570826820E0
1.972465667E0,-3.825504588E0,-4.578994923E0,-5.919823453E-2,5.967007985E0
1.982401667E0,-3.387777931E0,-3.118771513E0,1.406097490E0,4.814653176E0
1.992336667E0,-2.225273107E0,-1.902491015E0,2.834009771E0,4.074668557E0
2.002272667E0,-4.110007882E-1,-1.099945464E0,3.671038692E0,3.854260857E0
2.012207667E0,1.680972759E0,-5.432420021E-1,3.759195993E0,4.153593119E0
2.022142667E0,2.964370521E0,-3.371831989E-1,3.035841622E0,4.256467955E0
2.032078667E0,3.202420025E0,-6.877939439E-1,1.929395809E0,3.801463233E0
2.042013667E0,3.151720573E0,-1.436858522E0,8.535407998E-1,3.567413191E0
2.051949667E0,2.977729654E0,-2.016754965E0,2.552736479E-1,3.605459626E0
2.061884667E0,2.131138782E0,-2.530618801E0,4.386534405E-1,3.337394323E0
2.071819667E0,1.491372698E0,-2.617046496E0,1.211326590E0,3.246603917E0
2.081755667E0,1.423225738E0,-2.316807175E0,2.414778442E0,3.636526078E0
2.091690667E0,2.257909341E0,-1.875610780E0,3.507625971E0,4.573785122E0
2.101626667E0,3.642858621E0,-1.415039052E0,4.361207775E0,5.856012953E0
2.111561667E0,4.319649274E0,-1.267291607E0,4.950043441E0,6.690913834E0
2.121496667E0,4.446355222E0,-1.348526974E0,5.193619734E0,6.968664556E0
2.131432667E0,4.055739289E0,-1.630426503E0,5.074165796E0,6.697348004E0
2.141367667E0,3.440337383E0,-2.371025482E0,4.120129412E0,5.867976612E0
2.151303667E0,2.764721435E0,-2.978391559E0,2.884270683E0,4.983324018E0
2.161238667E0,2.014462564E0,-3.288001043E0,1.907660831E0,4.302113449E0
2.171173667E0,9.171585792E-1,-3.556189436E0,1.199022440E0,3.863329908E0
2.181109667E0,-4.486013085E-2,-3.606411172E0,1.204504205E0,3.802505010E0
2.191044667E0,-7.002593306E-1,-3.459962978E0,1.781270633E0,3.954065251E0
2.200980667E0,-1.145672445E0,-3.621946054E0,1.862048163E0,4.230636114E0
2.210915667E0,-1.307424264E0,-4.057506902E0,1.748286490E0,4.607518434E0
2.220850667E0,-8.663000822E-1,-4.359433145E0,1.625859243E0,4.732710793E0
2.230786667E0,-5.343103802E-1,-4.510655590E0,1.365894374E0,4.743118054E0
2.240721667E0,-9.541667765E-1,-4.909552057E0,7.675774473E-1,5.059971421E0
2.250657667E0,-1.334955294E0,-5.463021424E0,-3.367595682E-1,5.633836679E0
2.260592667E0,-1.713447902E0,-6.036504056E0,-1.812802036E0,6.531579913E0
2.270527667E0,-1.663971102E0,-6.278015698E0,-2.936188695E0,7.127656346E0
2.280463667E0,-3.931778902E-1,-6.250430873E0,-3.013007953E0,6.949869918E0
2.290398667E0,1.746422397E0,-5.541541345E0,-1.647032595E0,6.039154579E0
2.300334667E0,2.478538236E0,-4.476183330E0,-8.315129498E-1,5.183703578E0
2.310269667E0,2.630963161E0,-4.356801313E0,-2.701809780E0,5.762244435E0
2.320204667E0,2.212871747E0,-5.013452402E0,-4.732037607E0,7.240420310E0
2.330140667E0,1.404133410E0,-5.821146426E0,-5.636351023E0,8.223490086E0
2.340075667E0,9.053033495E-1,-6.955341371E0,-5.283340580E0,8.781232000E0
2.350011667E0,6.339071739E-1,-8.097134773E0,-4.379672697E0,9.227511191E0
2.359946667E0,1.172974264E0,-8.534205372E0,-3.926794443E0,9.467219473E0
2.369881667E0,1.689310303E0,-7.972403723E0,-4.866036201E0,9.491643627E0
2.379818417E0,1.686849795E0,-7.432472414E0,-6.700432005E0,1.014804895E1
2.389753417E0,2.171795642E0,-7.497746637E0,-8.037399033E0,1.120413692E1
2.399689417E0,2.410683053E0,-7.759403690E0,-8.177628129E0,1.152793738E1
2.409624417E0,3.416142190E0,-7.863515119E0,-7.655968784E0,1.149429230E1
2.419559417E0,5.065383863E0,-7.713696005E0,-7.269541504E0,1.174757224E1
2.429495417E0,6.490365520E0,-7.027017710E0,-7.240037039E0,1.199674784E1
2.439430417E0,7.718292502E0,-6.284700819E0,-7.524713995E0,1.247761292E1
2.449366417E0,8.799116986E0,-5.652233230E0,-8.375548192E0,1.339858230E1
2.459301417E0,9.082230397E0,-4.765729263E0,-1.003773385E1,1.435113881E1
2.469236417E0,8.755727137E0,-4.258680649E0,-1.187567394E1,1.535678189E1
2.479172417E0,8.561315988E0,-3.931728908E0,-1.334327127E1,1.633393743E1
2.489107417E0,8.443444306E0,-3.828542509E0,-1.401138583E1,1.680084588E1
2.499043417E0,9.035189547E0,-3.827698463E0,-1.306501398E1,1.633953842E1
2.508978417E0,9.410389588E0,-3.441920517E0,-1.112245901E1,1.497034881E1
2.518913417E0,9.124847828E0,-3.753082144E0,-9.289485540E0,1.355149494E1
2.528849417E0,8.444424884E0,-4.912886724E0,-7.401582159E0,1.225676083E1
2.538784417E0,7.367967101E0,-5.615713860E0,-5.863183814E0,1.096358088E1
2.548720417E0,6.151032300E0,-6.356646130E0,-4.828524266E0,1.007753913E1
2.558655417E0,5.269282705E0,-7.014694703E0,-4.002027935E0,9.643003142E0
2.568590417E0,5.256718208E0,-6.665934017E0,-3.255005790E0,9.091909884E0
2.578526417E0,5.348939323E0,-6.491840773E0,-2.756930605E0,8.851881996E0
2.588461417E0,5.486477530E0,-6.982091213E0,-2.578040890E0,9.246476530E0
2.598397417E0,5.616082234E0,-7.208722275E0,-2.305994503E0,9.424630877E0
2.608332417E0,6.029450560E0,-6.783718575E0,-1.739538324E0,9.241163636E0
2.618267417E0,6.726260911E0,-5.924840949E0,-8.574020818E-1,9.004524665E0
2.628203417E0,6.971591953E0,-5.476364771E0,-2.450918913E-1,8.868694126E0
2.638138417E0,7.190678937E0,-5.648841260E0,9.877321333E-2,9.144672072E0
2.648074417E0,7.980242500E0,-5.912447775E0,2.646116513E-1,9.935357486E0
2.658009417E0,9.063040420E0,-6.280862122E0,6.227427927E-1,1.104426273E1
2.667944417E0,1.017928675E1,-6.908360163E0,1.046192595E0,1.234657191E1
2.677880417E0,1.078806610E1,-7.860600867E0,1.567378315E0,1.343979505E1
2.687815417E0,1.097022558E1,-9.378302407E0,2.491312648E0,1.464599071E1
2.697751417E0,1.062622687E1,-1.136464834E1,4.320732763E0,1.614746608E1
2.707686417E0,9.608952845E0,-1.338544958E1,7.080900972E0,1.793436349E1
2.717621417E0,8.186639273E0,-1.477007960E1,1.031799791E1,1.978983059E1
2.727557417E0,7.121467200E0,-1.466209907E1,1.331764878E1,2.104880550E1
2.737492417E0,6.334078217E0,-1.283313445E1,1.491642956E1,2.067147207E1
2.747428417E0,5.522274769E0,-1.022360046E1,1.453798373E1,1.861103157E1
2.757363417E0,4.712804360E0,-8.379885657E0,1.291319219E1,1.609917827E1
2.767298417E0,3.949801775E0,-7.445301206E0,1.068568369E1,1.360945554E1
2.777234417E0,3.141064022E0,-6.684757959E0,8.582926127E0,1.132337816E1
2.787169417E0,2.191859193E0,-6.022744973E0,7.223832650E0,9.657197414E0
2.797105417E0,1.020425670E0,-5.614122832E0,6.161742645E0,8.398018585E0
2.807040417E0,-1.743756652E-1,-5.081033936E0,5.228340501E0,7.292657754E0
2.816975417E0,-7.049362260E-1,-4.205888186E0,4.597507500E0,6.270845695E0
2.826911417E0,-5.461492378E-1,-3.249998235E0,4.076358325E0,5.241895145E0
2.836846417E0,1.860104549E-1,-2.378121078E0,3.705474114E0,4.406880775E0
2.846782417E0,1.894580902E0,-1.446868370E0,3.064336566E0,3.882399189E0
2.856717417E0,3.172189921E0,-8.526351392E-1,2.025401973E0,3.859019140E0
2.866652417E0,3.094365819E0,-1.032298442E0,1.394738835E0,3.547680413E0
2.876588417E0,2.223953975E0,-1.540103978E0,1.418746186E0,3.054624737E0
2.886523417E0,1.800019730E0,-1.926154112E0,1.858828540E0,3.225737782E0
2.896459417E0,1.913020681E0,-1.986896158E0,2.608490850E0,3.796265136E0
2.906394417E0,2.041129083E0,-1.924453742E0,3.251014481E0,4.294045329E0
2.916329417E0,2.444223266E0,-1.754816660E0,3.490205362E0,4.608160409E0
2.926265417E0,3.492320884E0,-1.545943592E0,3.420818793E0,5.127206643E0
2.936200417E0,4.870385068E0,-1.398861560E0,2.896631112E0,5.836774467E0
2.946135417E0,6.162812685E0,-1.188295723E0,2.549293638E0,6.774304760E0
2.956071417E0,6.197753892E0,-1.458764530E0,2.104190719E0,6.705800910E0
2.966006417E0,5.702731538E0,-2.100890551E0,2.057623494E0,6.416284170E0
2.975942417E0,4.885163321E0,-2.405601237E0,2.401793531E0,5.951499823E0
2.985877417E0,3.665425950E0,-2.617445861E0,2.153724091E0,4.992484120E0
2.995812417E0,2.506971492E0,-3.016056983E0,1.676473180E0,4.265216068E0
3.005748417E0,1.968026901E0,-3.485673185E0,1.572396688E0,4.300637020E0
3.015683417E0,1.776870604E0,-3.730286189E0,1.501943587E0,4.396377911E0
3.025619417E0,2.061541128E0,-3.538576453E0,1.694387148E0,4.431977318E0
3.035554417E0,1.660361323E0,-3.699155613E0,2.106536037E0,4.569250053E0
3.045489417E0,9.831897238E-1,-3.912908767E0,2.440215877E0,4.715100273E0
3.055425417E0,8.238656688E-1,-4.038545551E0,2.287886846E0,4.714130994E0
3.065360417E0,1.456551944E0,-3.995524077E0,1.883485810E0,4.651158460E0
3.075296417E0,1.400387391E0,-3.915347056E0,9.080579728E-1,4.256242087E0
3.085231417E0,7.552883542E-1,-4.394110642E0,-7.263098457E-1,4.517321643E0
3.095166417E0,2.042875354E-1,-4.790752423E0,-2.541539061E0,5.427012343E0
3.105102417E0,-4.318502051E-1,-4.747904027E0,-4.220948274E0,6.367534183E0
3.115037417E0,-1.586716227E0,-5.094896514E0,-5.052859712E0,7.348947553E0
3.124973417E0,-2.056544390E0,-5.895585575E0,-3.772425611E0,7.295101033E0
3.134908417E0,-2.764801542E0,-6.519727314E0,-9.023575222E-1,7.138992990E0
3.144843417E0,-2.250741678E0,-7.537019461E0,-6.309657320E-1,7.891173437E0
3.154779417E0,-8.106641176E-1,-7.927315258E0,-1.293358494E0,8.072935012E0
3.164714417E0,-6.924886733E-2,-7.265211641E0,-2.264510847E0,7.610263134E0
3.174650417E0,6.123572606E-1,-7.003797247E0,-3.863845950E0,8.022310317E0
3.184585417E0,1.264511840E0,-6.948340500E0,-5.800884070E0,9.139402710E0
3.194520417E0,1.644303115E0,-7.043988669E0,-7.010226261E0,1.007297282E1
3.204456417E0,1.709180312E0,-7.811166167E0,-6.963356735E0,1.060301614E1
3.214391417E0,2.090831586E0,-8.291987972E0,-6.223285174E0,1.057629045E1
3.224327417E0,2.131090250E0,-8.979189593E0,-5.224749141E0,1.060497030E1
3.234262417E0,1.292474395E0,-1.027919813E1,-3.971310757E0,1.109521128E1
3.244197417E0,7.490973222E-1,-1.162895185E1,-2.701147875E0,1.196201771E1
3.254133417E0,8.380720639E-1,-1.230382110E1,-2.083194537E0,1.250704114E1
3.264068417E0,2.426070001E0,-1.147208508E1,-2.387675428E0,1.196643413E1
3.274004417E0,5.491466374E0,-8.831559092E0,-3.915865120E0,1.111245421E1
3.283939417E0,8.660613989E0,-5.601099914E0,-6.164415407E0,1.201576349E1
3.293874417E0,1.068031829E1,-3.322810687E0,-9.031726241E0,1.437645118E1
3.303810417E0,1.162536984E1,-1.909180522E0,-1.202581407E1,1.683491604E1
3.313745417E0,1.216071635E1,-1.124165801E0,-1.479790884E1,1.918658065E1
3.323681417E0,1.310480194E1,-9.275859189E-1,-1.660563637E1,2.117412120E1
3.333616417E0,1.454008873E1,-7.278672516E-1,-1.630680623E1,2.185991538E1
3.343551417E0,1.454900339E1,-1.464700624E0,-1.501732795E1,2.096041475E1
3.353487417E0,1.297173451E1,-3.456930027E0,-1.366703044E1,1.915734800E1
3.363422417E0,1.031225010E1,-5.805850110E0,-1.227604332E1,1.705144091E1
3.373358417E0,7.938800944E0,-7.698402028E0,-1.078385494E1,1.544608305E1
3.383292833E0,6.576370461E0,-8.831048630E0,-9.078101678E0,1.427052902E1
3.393227833E0,5.789271500E0,-1.002868820E1,-7.267038311E0,1.367114104E1
3.403163833E0,6.298880317E0,-1.024925103E1,-5.161941859E0,1.309078621E1
3.413098833E0,7.655448967E0,-9.864577911E0,-3.332501863E0,1.292367459E1
3.423034833E0,7.881352050E0,-9.352234350E0,-2.138167720E0,1.241578667E1
3.432969833E0,7.449821103E0,-9.515156490E0,-1.823654176E0,1.222144640E1
3.442904833E0,6.594516125E0,-1.018295179E1,-1.508616722E0,1.222522288E1
3.452840833E0,5.530702946E0,-1.099833315E1,-9.127316523E-1,1.234443543E1
3.462775833E0,5.179661261E0,-1.137407990E1,-2.770396158E-1,1.250101337E1
3.472711833E0,6.478105078E0,-1.083383226E1,1.257177678E-1,1.262353246E1
3.482646833E0,9.422593896E0,-1.004522764E1,-2.929425806E-1,1.377598234E1
3.492581833E0,1.243785800E1,-9.860246294E0,-4.064235878E-1,1.587734073E1
3.502517833E0,1.500378930E1,-1.007496541E1,4.917654544E-1,1.807928247E1
3.512452833E0,1.692271216E1,-1.115884272E1,2.215422887E0,2.039132307E1
3.522388833E0,1.707944912E1,-1.259488614E1,5.269069281E0,2.186553979E1
3.532323833E0,1.682424505E1,-1.275125940E1,9.204718455E0,2.302990837E1
3.542258833E0,1.475330160E1,-1.200797772E1,1.259716890E1,2.281534793E1
3.552194833E0,1.105999437E1,-1.120352948E1,1.424817234E1,2.123329846E1
3.562129833E0,6.060895717E0,-1.029315309E1,1.441031329E1,1.871738728E1
3.572065833E0,1.939399810E0,-9.205985547E0,1.298129003E1,1.603200962E1
3.582000833E0,-1.798012966E-1,-8.260306588E0,1.105134517E1,1.379845004E1
3.591935833E0,-6.186564660E-1,-6.968054388E0,9.941030256E0,1.215568181E1
3.601871833E0,-3.181832564E-1,-5.533835299E0,8.737820624E0,1.034766075E1
3.611806833E0,-1.480170017E-1,-4.649608823E0,7.314610673E0,8.668581230E0
3.621742833E0,3.238188028E-3,-4.004962068E0,5.316742215E0,6.656386365E0
3.631677833E0,5.481261814E-1,-3.002469224E0,3.620569620E0,4.735376238E0
3.641612833E0,1.410063656E0,-1.912512558E0,2.839075214E0,3.702206352E0
3.651548833E0,1.933521604E0,-1.103724520E0,2.162154753E0,3.103486230E0
3.661483833E0,1.996286786E0,-7.473098284E-1,1.669360188E0,2.707470471E0
3.671419833E0,2.200984942E0,-7.134100109E-1,1.770872237E0,2.913636395E0
3.681354833E0,2.685413895E0,-7.497130340E-1,2.431778637E0,3.699603325E0
3.691289833E0,3.325186411E0,-7.816587120E-1,3.225379995E0,4.697970958E0
3.701225833E0,4.096626529E0,-9.605180222E-1,3.628329459E0,5.556052417E0
3.711160833E0,4.611020708E0,-1.178441411E0,3.584241746E0,5.957937984E0
3.721095833E0,4.476976213E0,-1.647911432E0,3.031160049E0,5.652155283E0
3.731031833E0,4.144868982E0,-2.322822205E0,1.924711896E0,5.126398127E0
3.740966833E0,4.253887979E0,-2.508126901E0,8.531277671E-1,5.011396061E0
3.750902833E0,4.594238614E0,-2.194836595E0,4.040906949E-1,5.107604665E0
3.760837833E0,4.400353714E0,-2.328052540E0,7.776024985E-1,5.038611623E0
3.770772833E0,4.264367359E0,-2.594539393E0,2.063613381E0,5.401385361E0
3.780708833E0,4.537948639E0,-2.663911929E0,3.557076459E0,6.351550799E0
3.790643833E0,4.980586957E0,-2.850455650E0,4.475654742E0,7.277556542E0
3.800579833E0,4.924640797E0,-3.346631659E0,4.844906995E0,7.676272158E0
3.810514833E0,4.319149337E0,-3.831357651E0,4.589707022E0,7.375619499E0
3.820449833E0,3.195165385E0,-4.232413495E0,3.752633663E0,6.496511774E0
3.830385833E0,2.221255485E0,-4.711900381E0,1.728517638E0,5.488511124E0
3.840320833E0,1.335425118E0,-5.318790495E0,-9.520772740E-2,5.484702096E0
3.850256833E0,9.462306431E-1,-5.435452387E0,-8.470159650E-2,5.517850075E0
3.860191833E0,1.121262951E0,-5.212051912E0,5.529108118E-1,5.359890494E0
3.870126833E0,1.938827660E0,-5.006712316E0,5.113679525E-1,5.393303078E0
3.880062833E0,2.981580923E0,-4.795080532E0,2.573125720E-1,5.652329773E0
3.889997833E0,3.651296445E0,-4.480377538E0,3.501736656E-1,5.790368746E0
3.899933833E0,3.617615606E0,-4.434221372E0,9.622996688E-2,5.723523570E0
3.909868833E0,2.464125434E0,-4.977995471E0,-7.919992206E-1,5.610669820E0
3.919803833E0,1.056376545E0,-5.507979496E0,-2.343168762E0,6.078174840E0
3.929739833E0,2.769959079E-1,-5.544174930E0,-3.982092731E0,6.831666335E0
3.939674833E0,-1.774520315E-1,-5.035120429E0,-4.984948980E0,7.087569632E0
3.949610833E0,-5.584681517E-1,-5.013351245E0,-4.853827215E0,7.000372563E0
3.959545833E0,-1.156870009E0,-5.506444017E0,-4.262069988E0,7.058648207E0
3.969480833E0,-1.619224115E0,-6.003294795E0,-3.786607448E0,7.280098289E0
3.979416833E0,-8.620389238E-1,-5.824596868E0,-3.440460759E0,6.819516846E0
3.989351833E0,5.432703611E-1,-4.559886807E0,-3.434800655E0,5.734593788E0
3.999287833E0,1.465513094E0,-3.705856522E0,-4.185903572E0,5.779523329E0
4.009222833E0,1.693710918E0,-3.852738580E0,-5.628633868E0,7.028070180E0
4.019157833E0,1.043568073E0,-4.719635662E0,-6.452417675E0,8.062114423E0
4.029093833E0,-3.447518349E-3,-5.935088779E0,-6.091340414E0,8.504688045E0
4.039028833E0,-8.708386910E-1,-7.538077222E0,-4.859646072E0,9.010944910E0
4.048964833E0,-1.909163858E0,-9.257339888E0,-3.238247085E0,9.991470994E0
4.058899833E0,-2.650087357E0,-1.070346859E1,-1.887288547E0,1.118700410E1
4.068834833E0,-2.430191703E0,-1.168196036E1,-1.173308725E0,1.198960729E1
4.078770833E0,-1.423060262E0,-1.196221741E1,-1.168168584E0,1.210307249E1
4.088705833E0,7.933969975E-2,-1.154566644E1,-1.632879117E0,1.166083199E1
4.098641833E0,2.780027107E0,-9.258883553E0,-2.733368665E0,1.004623211E1
4.108576833E0,6.210282721E0,-6.143746669E0,-4.587654357E0,9.867107333E0
4.118511833E0,8.663876735E0,-3.601306260E0,-5.998681927E0,1.113626292E1
4.128447833E0,1.062182508E1,-1.873532680E0,-6.795505977E0,1.274802707E1
4.138382833E0,1.121076834E1,-9.748249894E-1,-7.666179192E0,1.361623714E1
4.148318833E0,1.070553382E1,-1.153503328E0,-9.882241180E0,1.461498255E1
4.158253833E0,9.389127942E0,-1.907009743E0,-1.239826182E1,1.566873658E1
4.168188833E0,8.458048897E0,-2.891047898E0,-1.388424865E1,1.651269541E1
4.178124833E0,9.326033562E0,-3.586179513E0,-1.269886016E1,1.615848492E1
4.188059833E0,1.038098295E1,-3.737892540E0,-1.003553646E1,1.491471219E1
4.197995833E0,1.092868462E1,-4.271267366E0,-8.142415026E0,1.428211451E1
4.207930833E0,1.118465701E1,-4.992951479E0,-6.433321838E0,1.383523570E1
4.217865833E0,1.009437582E1,-5.570241818E0,-5.206432738E0,1.265033435E1
4.227801833E0,8.048173698E0,-6.404303277E0,-4.979133924E0,1.142715953E1
4.237736833E0,5.258724387E0,-8.215315772E0,-5.619019291E0,1.125695222E1
4.247672833E0,2.561431873E0,-9.499377193E0,-6.000433753E0,1.152407504E1
4.257607833E0,1.407809554E0,-9.621029100E0,-5.288701892E0,1.106871702E1
4.267542833E0,2.097588043E0,-8.861655296E0,-4.045219563E0,9.964567803E0
4.277478833E0,4.160744172E0,-7.672819875E0,-2.490991051E0,9.076838289E0
4.287413833E0,6.145692038E0,-6.712910548E0,-8.622177024E-1,9.141997485E0
4.297349833E0,6.906565652E0,-6.859065211E0,5.002731532E-2,9.733957439E0
4.307284833E0,6.998968617E0,-7.388068074E0,1.288284865E-1,1.017770644E1
4.317219833E0,6.993660514E0,-7.797310604E0,2.132052702E-1,1.047639234E1
4.327155833E0,7.346937590E0,-8.398492082E0,1.390733930E-1,1.115936838E1
4.337090833E0,7.876323445E0,-8.726963514E0,-3.626671189E-1,1.176128780E1
4.347026833E0,9.466342764E0,-8.505136524E0,-1.129890225E0,1.277597920E1
4.356961833E0,1.201065224E1,-8.848281544E0,-1.376198337E0,1.498138095E1
4.366896833E0,1.384791756E1,-1.028056170E1,-2.358889586E-1,1.724849017E1
4.376832917E0,1.575682531E1,-1.106288758E1,2.317791261E0,1.939167816E1
4.386767917E0,1.704708127E1,-1.071585533E1,5.862704342E0,2.097150060E1
4.396703917E0,1.675187523E1,-1.050420951E1,9.468774036E0,2.192307969E1
4.406638917E0,1.478258095E1,-1.064207048E1,1.242951753E1,2.205155935E1
4.416573917E0,1.170588015E1,-1.030432829E1,1.406261796E1,2.099914369E1
4.426509917E0,8.303404076E0,-9.911995322E0,1.436812212E1,1.932969487E1
4.436444917E0,4.946882436E0,-9.682900243E0,1.394568067E1,1.768367078E1
4.446380917E0,2.127255646E0,-9.096753126E0,1.199628095E1,1.520483116E1
4.456315917E0,-2.905955082E-1,-8.391309947E0,8.789419963E0,1.215534581E1
4.466250917E0,-1.121865506E0,-6.951219669E0,6.163193924E0,9.357510163E0
4.476186917E0,-6.611744946E-1,-5.205165646E0,5.001960284E0,7.249172904E0
4.486121917E0,2.498503554E-1,-3.672080081E0,4.346508459E0,5.695501129E0
4.496056917E0,1.164963579E0,-2.387688877E0,3.465452929E0,4.366641995E0
4.505992917E0,2.053361458E0,-1.413298336E0,2.816319605E0,3.761031984E0
4.515927917E0,2.523978703E0,-9.079591548E-1,2.746574602E0,3.839079364E0
4.525863917E0,2.475745606E0,-1.113670049E0,2.855957295E0,3.940313357E0
4.535798917E0,2.440382230E0,-1.389390825E0,3.157056742E0,4.225266804E0
4.545733917E0,2.459885618E0,-1.611120166E0,3.077503326E0,4.256497641E0
4.555669917E0,2.338461168E0,-1.940845242E0,2.524087461E0,3.950480781E0
4.565604917E0,2.237096177E0,-2.166787502E0,1.591676712E0,3.497570891E0
4.575540917E0,2.204582734E0,-2.243394213E0,7.774797070E-1,3.239981068E0
4.585475917E0,2.536171317E0,-1.952470091E0,5.236541221E-1,3.243226487E0
4.595410917E0,2.894519098E0,-1.604486500E0,9.986459613E-1,3.456864402E0
4.605346917E0,3.020329544E0,-1.744528484E0,1.726781308E0,3.891984567E0
4.615281917E0,3.153046721E0,-2.010811855E0,2.377634590E0,4.431502475E0
4.625217917E0,4.148265629E0,-2.009226090E0,2.529676230E0,5.257790319E0
4.635152917E0,5.514467567E0,-1.837043130E0,2.160929615E0,6.201104483E0
4.645087917E0,6.075746475E0,-1.895947981E0,1.996076871E0,6.670355077E0
4.655023917E0,5.586629224E0,-2.284866174E0,2.231531382E0,6.435120188E0
4.664958917E0,4.154573313E0,-3.191486317E0,2.362423643E0,5.746921767E0
4.674894917E0,2.694049648E0,-3.794900261E0,1.965432783E0,5.051939976E0
4.684829917E0,1.720655180E0,-3.844279413E0,5.445218845E-1,4.246839123E0
4.694764917E0,7.474408060E-1,-4.134981340E0,-6.594945896E-1,4.253430563E0
4.704700917E0,2.271546802E-1,-4.184999592E0,-4.708813928E-1,4.217528912E0
4.714635917E0,-8.051908314E-3,-4.061707542E0,9.100897340E-1,4.162426734E0
4.724571917E0,-1.886066186E-1,-3.929651685E0,2.221300362E0,4.517954196E0
4.734506917E0,-3.205595648E-1,-4.134676116E0,2.551576684E0,4.869173296E0
4.744441917E0,6.523446143E-2,-4.490886154E0,2.426921940E0,5.105121359E0
4.754377917E0,3.393270805E-1,-4.486781994E0,2.053139264E0,4.945880747E0
4.764312917E0,2.676153660E-1,-4.468128791E0,1.134973794E0,4.617787175E0
4.774248917E0,1.047791809E-1,-4.741900105E0,-1.072940683E-1,4.744270998E0
4.784183917E0,-1.863194802E-1,-4.631232778E0,-1.589353906E0,4.899905901E0
4.794118917E0,-4.963254055E-1,-4.145558369E0,-3.079662411E0,5.188093451E0
4.804054917E0,-5.846014050E-1,-3.945818651E0,-3.896882719E0,5.576462907E0
4.813989917E0,7.409971744E-2,-4.142864556E0,-3.011941713E0,5.122558968E0
4.823925917E0,5.760492674E-1,-4.352024138E0,-1.071388832E0,4.518829592E0
4.833860917E0,6.233976808E-1,-4.910040300E0,-1.493340432E0,5.169834239E0
4.843795917E0,1.195037855E0,-5.110974603E0,-2.604835755E0,5.859637035E0
4.853731917E0,1.410667089E0,-4.399553230E0,-3.315904541E0,5.686938824E0
4.863666917E0,1.372425129E0,-4.133271614E0,-4.268274468E0,6.098003928E0
4.873601917E0,1.543985944E0,-4.598214136E0,-5.181696677E0,7.097707115E0
4.883537917E0,1.856491554E0,-4.691241583E0,-5.592699804E0,7.532104592E0
4.893472917E0,2.339991969E0,-4.433856506E0,-5.999820964E0,7.818727360E0
4.903408917E0,2.396681895E0,-4.856271644E0,-5.975136359E0,8.064100253E0
4.913343917E0,1.444212565E0,-6.276508870E0,-5.253210463E0,8.311229373E0
4.923278917E0,3.224318433E-1,-7.835553149E0,-3.836480981E0,8.730317392E0
4.933214917E0,-2.809587121E-2,-9.193701716E0,-2.253508726E0,9.465898911E0
4.943149917E0,4.292581344E-1,-1.018536552E1,-1.331423429E0,1.028098349E1
4.953085917E0,2.019494970E0,-9.545884193E0,-2.307899673E0,1.002639845E1
4.963020917E0,4.509136484E0,-6.670260957E0,-4.923419899E0,9.437412599E0
4.972955917E0,7.058942923E0,-3.144582292E0,-8.422705402E0,1.143061850E1
4.982891917E0,9.003002379E0,-3.772395498E-1,-1.218624178E1,1.515588501E1
4.992826917E0,9.586617651E0,5.157016164E-1,-1.469395353E1,1.755224933E1
5.002762917E0,1.025431822E1,1.546255249E-1,-1.452123146E1,1.777754523E1
5.012697917E0,1.073673339E1,-1.445219455E0,-1.352630784E1,1.732994827E1
5.022632917E0,8.760307261E0,-3.038601216E0,-1.266828039E1,1.569908943E1
5.032568917E0,5.609665500E0,-3.947901722E0,-1.080944352E1,1.280227887E1
5.042503917E0,2.934215845E0,-5.401651973E0,-9.127318861E0,1.100433625E1
5.052439917E0,1.784997649E0,-6.842542734E0,-7.425955693E0,1.025433692E1
5.062374917E0,1.984345018E0,-6.976277327E0,-4.953397989E0,8.783064507E0
5.072309917E0,3.049134682E0,-6.854586829E0,-2.859334062E0,8.028597274E0
5.082245917E0,5.571296071E0,-5.745782248E0,-1.832169330E0,8.210371368E0
5.092180917E0,7.070800492E0,-4.057563035E0,-2.758826857E0,8.606460539E0
5.102116917E0,6.972380158E0,-3.543557404E0,-4.999910835E0,9.282779352E0
5.112051917E0,6.221479554E0,-4.326662132E0,-6.612166530E0,1.005721429E1
5.121986917E0,5.239802797E0,-5.175335491E0,-7.368686893E0,1.041811774E1
5.131922917E0,4.140401709E0,-5.753550274E0,-7.323057561E0,1.019183198E1
5.141857917E0,3.869179780E0,-6.225795969E0,-6.382661562E0,9.719539919E0
5.151793917E0,4.170241220E0,-6.898694715E0,-5.272617956E0,9.632414065E0
5.161728917E0,5.564849516E0,-7.186872400E0,-3.738549474E0,9.828297777E0
5.171663917E0,7.880792472E0,-6.988369369E0,-1.817573364E0,1.068867482E1
5.181599917E0,9.372321875E0,-7.620061617E0,-4.330041531E-1,1.208690403E1
5.191534917E0,1.044898373E1,-8.911528537E0,5.586847910E-1,1.374440724E1
5.201470917E0,1.110314682E1,-1.010346123E1,1.726126712E0,1.511090042E1
5.211405917E0,1.199245921E1,-1.136278542E1,2.598618411E0,1.672377912E1
5.221340917E0,1.281212892E1,-1.267304938E1,3.744601927E0,1.840594664E1
5.231276917E0,1.360319989E1,-1.348320684E1,5.592256585E0,1.995287567E1
5.241211917E0,1.515250973E1,-1.352487059E1,8.057638586E0,2.185054267E1
5.251147917E0,1.582611365E1,-1.281006485E1,1.079828119E1,2.304704994E1
5.261082917E0,1.525036054E1,-1.154434263E1,1.278991768E1,2.300928808E1
5.271017917E0,1.369368088E1,-9.918471698E0,1.346719482E1,2.161615861E1
5.280953917E0,1.047579438E1,-8.801972181E0,1.429054594E1,1.978475892E1
5.290888917E0,7.048179953E0,-8.054902673E0,1.559261912E1,1.891264309E1
5.300824917E0,4.072079918E0,-7.167840883E0,1.591590934E1,1.792417216E1
5.310759917E0,1.557407058E0,-6.713936734E0,1.387178473E1,1.548963765E1
5.320694917E0,2.859580815E-2,-6.396714175E0,1.032707279E1,1.214772416E1
5.330630917E0,-8.493326318E-1,-5.845610592E0,6.794510196E0,9.003215977E0
5.340565917E0,-1.366713569E0,-5.095450246E0,4.353927407E0,6.840190279E0
5.350501917E0,-1.312603435E0,-4.216523101E0,3.051263654E0,5.367700134E0
5.360436917E0,-9.901207209E-1,-3.260840726E0,2.488252800E0,4.219576197E0
5.370371917E0,-5.019460416E-1,-2.300150211E0,2.537550091E0,3.461473860E0
5.380308167E0,1.464458549E-1,-1.378393967E0,2.644286627E0,2.985576675E0
5.390243167E0,8.201035702E-1,-8.893088758E-1,2.641400149E0,2.905242656E0
5.400179167E0,1.498090564E0,-6.451958084E-1,2.609625502E0,3.077449956E0
5.410114167E0,1.837882791E0,-6.279728347E-1,2.590698065E0,3.237881946E0
5.420049167E0,1.778733526E0,-9.725790739E-1,2.361664090E0,3.112436391E0
5.429985167E0,1.675012692E0,-1.440174478E0,2.129510332E0,3.068319458E0
5.439920167E0,1.854456723E0,-1.801073399E0,2.102533326E0,3.332194699E0
5.449856167E0,2.238315906E0,-1.931859825E0,2.237180084E0,3.707710238E0
5.459791167E0,2.737681571E0,-2.013908540E0,2.465893925E0,4.198971403E0
5.469726167E0,3.469475228E0,-1.916820787E0,2.972370389E0,4.954437003E0
5.479662167E0,4.255062684E0,-1.569476296E0,3.834768039E0,5.939213770E0
5.489597167E0,4.858614038E0,-1.373107499E0,4.703316668E0,6.900198711E0
5.499532167E0,5.304925577E0,-1.513212048E0,5.038247520E0,7.471009580E0
5.509468167E0,5.887048640E0,-1.600396373E0,4.587954904E0,7.633343988E0
5.519403167E0,6.511184531E0,-1.540415635E0,3.820142983E0,7.704667205E0
5.529339167E0,6.411873082E0,-1.672826418E0,3.269585238E0,7.389225417E0
5.539274167E0,5.472910820E0,-2.271031078E0,2.864230521E0,6.581348758E0
5.549209167E0,3.899249672E0,-2.773219194E0,2.804487180E0,5.546173549E0
5.559145167E0,2.542548875E0,-3.049148131E0,3.357549580E0,5.199519044E0
5.569080167E0,1.697612765E0,-3.489325941E0,4.132405057E0,5.668690869E0
5.579016167E0,1.373677018E0,-3.952458165E0,4.597828220E0,6.216827039E0
5.588951167E0,1.644468591E0,-4.110566876E0,5.230658337E0,6.852796774E0
5.598886167E0,1.987487311E0,-4.619351236E0,5.428899997E0,7.400099110E0
5.608822167E0,2.707771309E0,-4.960432774E0,3.822641791E0,6.822793345E0
5.618757167E0,3.173388015E0,-4.959547505E0,1.548405855E0,6.088108380E0
5.628693167E0,2.512206504E0,-4.740335975E0,-7.586971347E-1,5.418264299E0
5.638628167E0,1.162450738E0,-4.960835062E0,-2.358985480E0,5.614800863E0
5.648563167E0,6.230945027E-1,-4.859049071E0,-3.057979181E0,5.774932147E0
5.658499167E0,9.017692924E-2,-4.687464282E0,-3.658238552E0,5.946693415E0
5.668434167E0,-5.304173040E-1,-5.227805480E0,-4.017971538E0,6.614785555E0
5.678370167E0,-1.144904413E0,-6.224355800E0,-3.909057791E0,7.438692362E0
5.688305167E0,-1.352675281E0,-7.106131707E0,-3.305061464E0,7.953003806E0
5.698240167E0,-2.735701704E-1,-7.538561372E0,-1.454789739E0,7.682523113E0
5.708176167E0,1.291696715E0,-7.355516040E0,-3.628162229E-1,7.476879846E0
5.718111167E0,1.908689064E0,-6.828229920E0,-2.180120469E0,7.417596851E0
5.728047167E0,2.094231157E0,-6.693051065E0,-5.148792640E0,8.700161053E0
5.737982167E0,2.131681988E0,-6.509153209E0,-7.367732043E0,1.005965303E1
5.747917167E0,2.297948150E0,-6.605430538E0,-8.279218823E0,1.083779233E1
5.757853167E0,1.606836496E0,-7.815662675E0,-8.357121862E0,1.155456587E1
5.767788167E0,6.083881706E-1,-9.794713039E0,-7.264103594E0,1.220957578E1
5.777724167E0,1.696563774E-1,-1.174165459E1,-5.278624216E0,1.287474696E1
5.787659167E0,3.253396636E-1,-1.304799390E1,-3.612164247E0,1.354266301E1
5.797594167E0,1.136247318E0,-1.361542057E1,-3.098059505E0,1.400959343E1
5.807530167E0,2.951144704E0,-1.301634292E1,-4.129052848E0,1.397080941E1
5.817465167E0,5.866137242E0,-1.051357909E1,-6.584033822E0,1.372211400E1
5.827401167E0,9.827934580E0,-6.522532808E0,-1.024599764E1,1.562409037E1
5.837336167E0,1.354880558E1,-2.645317199E0,-1.419454050E1,1.980032363E1
5.847271167E0,1.585315468E1,-8.537940574E-1,-1.630100228E1,2.275465124E1
5.857207167E0,1.625939466E1,-1.267129931E0,-1.622689350E1,2.300620798E1
5.867142167E0,1.525588850E1,-2.947619417E0,-1.566576662E1,2.206460600E1
5.877077167E0,1.427647871E1,-4.121356743E0,-1.465755578E1,2.087216729E1
5.887013167E0,1.326894849E1,-4.628013594E0,-1.276395721E1,1.898425947E1
5.896948167E0,1.258929621E1,-4.468515877E0,-1.001058990E1,1.669340958E1
5.906884167E0,1.150675556E1,-4.996047580E0,-7.791232424E0,1.476716688E1
5.916819167E0,1.077664766E1,-5.904679164E0,-6.104879057E0,1.372118505E1
5.926754167E0,9.741309249E0,-6.022558447E0,-4.559702035E0,1.232701094E1
5.936690167E0,7.998393427E0,-6.485047477E0,-3.912897658E0,1.101548484E1
5.946625167E0,5.868453909E0,-7.283405837E0,-3.689320596E0,1.005474208E1
5.956561167E0,4.232179021E0,-7.889107797E0,-3.957131844E0,9.788169059E0
5.966496167E0,3.394614496E0,-7.825206501E0,-4.748910917E0,9.762654314E0
5.976431167E0,3.814828742E0,-7.076212674E0,-5.692872548E0,9.850609219E0
5.986367167E0,5.222893819E0,-7.041290764E0,-6.747595646E0,1.106293101E1
5.996302167E0,6.047722524E0,-8.048653169E0,-6.192245815E0,1.181946165E1
6.006238167E0,7.456540723E0,-9.506221944E0,-4.300457543E0,1.282428128E1
6.016173167E0,9.844365256E0,-1.082328973E1,-2.461952316E0,1.483631818E1
6.026108167E0,1.210882348E1,-1.230672366E1,-2.986348450E-2,1.726499189E1
6.036044167E0,1.440096710E1,-1.371958053E1,3.341387876E0,2.016877825E1
6.045979167E0,1.617616774E1,-1.444625144E1,7.049278645E0,2.280471251E1
6.055915167E0,1.746965019E1,-1.499823328E1,1.014412160E1,2.516026395E1
6.065850167E0,1.788379912E1,-1.510796096E1,1.265834948E1,2.661417981E1
6.075785167E0,1.835235873E1,-1.373132525E1,1.417950731E1,2.695212036E1
6.085721167E0,1.888484010E1,-1.107831721E1,1.409231597E1,2.603765864E1
6.095656167E0,1.713226000E1,-9.474250538E0,1.297404416E1,2.348619973E1
6.105592167E0,1.257881332E1,-1.006189220E1,1.182606148E1,1.998309159E1
6.115527167E0,7.404375958E0,-1.040595173E1,1.124483889E1,1.701631618E1
6.125462167E0,3.204613316E0,-9.610426344E0,1.142703346E1,1.527111439E1
6.135398167E0,1.666550016E-1,-7.888579209E0,1.151236772E1,1.395679284E1
6.145333167E0,-1.496961467E0,-6.260186952E0,1.091395432E1,1.267064454E1
6.155269167E0,-1.504531272E0,-4.782715425E0,9.925281365E0,1.111976580E1
6.165204167E0,-5.587540805E-2,-3.164793777E0,8.775502421E0,9.328905855E0
6.175139167E0,1.621413605E0,-1.532352324E0,7.408776573E0,7.737380437E0
6.185075167E0,2.824839583E0,-3.709689957E-1,5.789752725E0,6.452795773E0
6.195010167E0,3.936281258E0,1.467598504E-1,4.190732787E0,5.751355483E0
6.204946167E0,4.678495238E0,2.677176923E-1,3.064497072E0,5.599208226E0
6.214881167E0,4.900728024E0,-2.250488055E-1,2.252965228E0,5.398484459E0
6.224816167E0,4.526785719E0,-9.941909677E-1,1.790577939E0,4.968538415E0
6.234752167E0,3.916411834E0,-1.421257566E0,1.732469479E0,4.512173004E0
6.244687167E0,3.233733619E0,-1.724055043E0,1.867577583E0,4.113057858E0
6.254622167E0,2.705465167E0,-1.831182466E0,2.196215661E0,3.936512952E0
6.264558167E0,2.861081210E0,-1.592745291E0,2.450752852E0,4.090087138E0
6.274493167E0,3.493398526E0,-1.215653676E0,2.252922543E0,4.330970689E0
6.284429167E0,4.882036230E0,-7.062115037E-1,1.605112444E0,5.187426954E0
6.294364167E0,6.299490767E0,-1.565790796E-1,8.249941814E-1,6.355211745E0
6.304299167E0,6.871276537E0,-1.031290966E-1,6.096654949E-1,6.899041156E0
6.314235167E0,6.748763920E0,-6.455852330E-1,1.195531068E0,6.884176732E0
6.324170167E0,6.183035281E0,-1.488592932E0,2.169902898E0,6.719695885E0
6.334106167E0,4.909207072E0,-2.699536675E0,2.702483672E0,6.220227514E0
6.344041167E0,3.028539035E0,-3.456240056E0,2.662037312E0,5.310751986E0
6.353976167E0,1.418891197E0,-3.497451231E0,2.276764272E0,4.407842204E0
6.363912167E0,2.653197491E-1,-3.489022470E0,1.565453997E0,3.833316916E0
6.373847167E0,-2.325563380E-1,-3.513257425E0,1.819026105E0,3.963069032E0
6.383783792E0,-3.693548718E-1,-3.624300143E0,2.897669578E0,4.654939691E0
6.393718792E0,-1.168080729E-1,-3.784782824E0,2.825538618E0,4.724605130E0
6.403653792E0,3.691902727E-2,-4.270339120E0,2.546695721E0,4.972204572E0
6.413589792E0,-3.364309546E-1,-4.848751540E0,1.886164420E0,5.213558621E0
6.423524792E0,-9.311354712E-1,-5.367745723E0,9.600724643E-1,5.531857423E0
6.433460792E0,-1.668593618E0,-5.765551100E0,6.249621034E-2,6.002473650E0
6.443395792E0,-2.386070952E0,-6.054753217E0,-1.016171821E0,6.586803191E0
6.453330792E0,-2.371479226E0,-6.080347649E0,-1.899059869E0,6.797129514E0
6.463266792E0,-2.180958229E0,-6.082186013E0,-2.001448123E0,6.764270847E0
6.473201792E0,-1.962652140E0,-6.549003153E0,-1.973108131E0,7.115799422E0
6.483137792E0,-1.852915982E0,-7.275798610E0,-1.954251738E0,7.758198431E0
6.493072792E0,-1.740610850E0,-7.814435345E0,-1.327458286E0,8.115249312E0
6.503007792E0,-1.575764977E0,-8.573442528E0,-7.227407053E-2,8.717349115E0
6.512943792E0,-1.020846962E0,-9.320492740E0,1.055832754E0,9.435491309E0
6.522878792E0,3.736160302E-1,-9.460911285E0,1.898874220E0,9.656819072E0
6.532814792E0,2.156542010E0,-8.895016585E0,1.823016099E0,9.332490621E0
6.542749792E0,2.841943274E0,-7.479328492E0,-6.807924879E-1,8.029973517E0
6.552684792E0,3.079167736E0,-6.326844626E0,-5.204965671E0,8.752251397E0
6.562620792E0,3.869142358E0,-5.709207914E0,-9.217461877E0,1.151203375E1
6.572555792E0,4.608140954E0,-5.843377540E0,-1.008045360E1,1.252978727E1
6.582491792E0,4.925019112E0,-6.950264234E0,-7.279681746E0,1.120516633E1
6.592426792E0,3.925040570E0,-8.569982146E0,-3.666225849E0,1.011393837E1
6.602361792E0,3.091541614E0,-1.076515203E1,-1.390310738E0,1.128623461E1
6.612297792E0,3.240167896E0,-1.199554069E1,-5.719117776E-1,1.243859990E1
6.622232792E0,4.280780493E0,-1.076499299E1,-1.519408928E0,1.168412424E1
6.632167792E0,6.766756972E0,-7.898932289E0,-4.297515809E0,1.125392258E1
6.642103792E0,1.023658245E1,-4.476218414E0,-7.801259814E0,1.362658454E1
6.652038792E0,1.408884974E1,-8.812786022E-1,-1.120028662E1,1.801995448E1
6.661974792E0,1.638536006E1,1.623086493E0,-1.409782756E1,2.167632755E1
6.671909792E0,1.646165570E1,1.887343949E0,-1.540024456E1,2.262113410E1
6.681844792E0,1.525176738E1,4.676874974E-1,-1.500034529E1,2.139732457E1
6.691780792E0,1.364515366E1,-1.698225992E0,-1.397234280E1,1.960358522E1
6.701715792E0,1.219595050E1,-3.653111129E0,-1.201122059E1,1.750302401E1
6.711651792E0,1.043031240E1,-5.214770867E0,-9.719377513E0,1.518063079E1
6.721586792E0,8.361939383E0,-6.626594535E0,-7.565756772E0,1.307954360E1
6.731521792E0,7.543480634E0,-7.008912392E0,-5.285428036E0,1.157431218E1
6.741457792E0,8.079714164E0,-5.729458576E0,-3.493828297E0,1.050310967E1
6.751392792E0,7.979281803E0,-4.518013142E0,-2.585438787E0,9.527112603E0
6.761328792E0,6.510312127E0,-4.511485310E0,-2.555789895E0,8.322843605E0
6.771263792E0,4.500322976E0,-5.099184278E0,-3.441028524E0,7.622024960E0
6.781198792E0,2.942364525E0,-5.477523104E0,-4.512719073E0,7.682799085E0
6.791134792E0,2.401228690E0,-5.593497364E0,-5.243027537E0,8.033831572E0
6.801069792E0,2.727096941E0,-5.359891158E0,-5.786771815E0,8.345790495E0
6.811005792E0,3.056086437E0,-4.658072083E0,-5.383349018E0,7.747112139E0
6.820940792E0,3.789002175E0,-4.723610600E0,-4.668464924E0,7.646149314E0
6.830875792E0,4.682838550E0,-5.471957139E0,-4.230825391E0,8.352914180E0
6.840811792E0,4.619077002E0,-6.367724850E0,-3.530067000E0,8.622364243E0
6.850746792E0,4.625499583E0,-8.223193726E0,-2.300801591E0,9.711325832E0
6.860682792E0,6.030162751E0,-1.014271125E1,-4.166021284E-1,1.180724403E1
6.870617792E0,8.052602963E0,-1.067410621E1,1.912745570E0,1.350701867E1
6.880552792E0,1.060433021E1,-1.095901179E1,3.937626117E0,1.574981454E1
6.890488792E0,1.296083998E1,-1.174380636E1,6.062668008E0,1.851097794E1
6.900423792E0,1.439704712E1,-1.245570136E1,8.588834154E0,2.088510317E1
6.910359792E0,1.587039812E1,-1.225078101E1,1.026671432E1,2.252457757E1
6.920294792E0,1.682671024E1,-1.143224332E1,1.145105265E1,2.334439915E1
6.930229792E0,1.702642774E1,-1.012135722E1,1.246685083E1,2.340434752E1
6.940165792E0,1.603211339E1,-8.232097281E0,1.275801878E1,2.208083170E1
6.950100792E0,1.392010962E1,-6.723122710E0,1.219421855E1,1.968930667E1
6.960036792E0,1.126849673E1,-6.145175729E0,1.110163357E1,1.697022307E1
6.969971792E0,8.118773564E0,-5.722689840E0,9.608649375E0,1.381990615E1
6.979906792E0,5.051258744E0,-5.538023075E0,8.239602183E0,1.113893885E1
6.989842792E0,3.152428671E0,-5.106572819E0,6.981732194E0,9.206491021E0
6.999777792E0,2.423835195E0,-4.241762608E0,5.894885663E0,7.656187305E0
7.009712792E0,2.116366376E0,-3.382120165E0,5.390259258E0,6.706164203E0
7.019648792E0,2.296004536E0,-2.673141759E0,5.538140019E0,6.564169297E0
7.029583792E0,2.971704099E0,-1.929367157E0,5.704833028E0,6.715549326E0
7.039519792E0,3.409713176E0,-1.373360099E0,5.554194134E0,6.660430496E0
7.049454792E0,3.584273613E0,-1.164341435E0,5.171566375E0,6.399047358E0
7.059389792E0,3.699999951E0,-1.308606278E0,4.695360362E0,6.119547284E0
7.069325792E0,3.792344443E0,-1.513257072E0,4.047696444E0,5.749406043E0
7.079260792E0,4.100983874E0,-1.543936243E0,3.424717131E0,5.561519153E0
7.089196792E0,4.626742117E0,-1.558435584E0,2.719346457E0,5.588408471E0
7.099131792E0,4.890073228E0,-1.410025064E0,2.319580801E0,5.592981490E0
7.109066792E0,4.575075535E0,-1.214976568E0,2.345804979E0,5.283018570E0
7.119002792E0,4.510228744E0,-1.457170579E0,2.343046555E0,5.287284424E0
7.128937792E0,5.074482715E0,-1.307745568E0,2.576785492E0,5.839554501E0
7.138873792E0,5.576434019E0,-1.175347064E0,3.187280999E0,6.529687379E0
7.148808792E0,6.145847574E0,-1.740840645E0,3.782283432E0,7.423451792E0
7.158743792E0,6.575018585E0,-2.230653715E0,4.724157899E0,8.397877901E0
7.168679792E0,6.056181691E0,-2.931139040E0,5.144021897E0,8.469349091E0
7.178614792E0,4.594304103E0,-3.845922480E0,4.706968839E0,7.619337607E0
7.188550792E0,2.738424168E0,-4.332287446E0,3.547053162E0,6.232918062E0
7.198485792E0,1.110630958E0,-4.393687888E0,2.316287942E0,5.089517091E0
7.208420792E0,-1.527760506E-1,-4.430660418E0,2.213870451E0,4.955331940E0
7.218356792E0,-1.036600823E0,-4.574820011E0,3.053575058E0,5.597127838E0
7.228291792E0,-1.576719827E0,-4.906899176E0,3.806357296E0,6.407188213E0
7.238227792E0,-1.716486992E0,-5.078786266E0,3.351173192E0,6.322243217E0
7.248162792E0,-1.262538990E0,-5.488919327E0,2.754823269E0,6.269871715E0
7.258097792E0,9.352124423E-2,-5.618610570E0,2.578390553E0,6.182687830E0
7.268033792E0,1.341847699E0,-5.654887281E0,2.198547823E0,6.213848883E0
7.277968792E0,1.987927899E0,-5.915759638E0,1.795361838E0,6.493950535E0
7.287904792E0,1.690621834E0,-6.246050724E0,8.271956581E-1,6.523465681E0
7.297839792E0,1.313544544E0,-6.079015653E0,-1.261861297E0,6.346032187E0
7.307774792E0,7.800530666E-1,-5.622005464E0,-3.070599811E0,6.453217137E0
7.317710792E0,3.954846168E-1,-5.779969164E0,-3.753456366E0,6.903107004E0
7.327645792E0,7.609379339E-1,-6.569472501E0,-3.276932264E0,7.380737127E0
7.337580792E0,1.245551659E0,-7.566782373E0,-2.332932626E0,8.015620316E0
7.347516792E0,1.462271690E0,-8.616738821E0,-1.513116154E0,8.869946274E0
7.357451792E0,2.400954455E0,-9.218984492E0,-1.235989707E0,9.606348313E0
7.367387792E0,3.375720388E0,-8.589785496E0,-2.349529509E0,9.523664836E0
7.377322792E0,4.192576414E0,-7.720958832E0,-4.382270615E0,9.818105623E0
7.387257292E0,5.074503180E0,-6.838338001E0,-6.466055136E0,1.069220829E1
7.397193292E0,5.604376693E0,-5.729328184E0,-7.775161352E0,1.116635006E1
7.407128292E0,5.646694747E0,-5.715648038E0,-8.117888880E0,1.142164235E1
7.417064292E0,4.986159353E0,-7.016157092E0,-7.409921458E0,1.135760456E1
7.426999292E0,4.158934459E0,-8.518503259E0,-6.261797860E0,1.136097470E1
7.436934292E0,3.514374243E0,-1.023995044E1,-5.288178567E0,1.204874450E1
7.446870292E0,3.028242581E0,-1.144051597E1,-4.578855760E0,1.268942783E1
7.456805292E0,3.351359718E0,-1.150419916E1,-5.106774548E0,1.302525841E1
7.466741292E0,5.167997235E0,-1.045104662E1,-7.385567220E0,1.380141928E1
7.476676292E0,8.395802947E0,-7.093153228E0,-1.178391475E1,1.611406146E1
7.486611292E0,1.087442012E1,-2.935309274E0,-1.674839263E1,2.018360001E1
7.496547292E0,1.070556189E1,-1.342208326E0,-2.069642796E1,2.333993807E1
7.506482292E0,1.011508315E1,-1.756181693E0,-2.118804080E1,2.354425948E1
7.516418292E0,1.100232095E1,-4.262672836E0,-1.897051584E1,2.234058901E1
7.526353292E0,1.126382012E1,-5.620703289E0,-1.492997639E1,1.952870053E1
7.536288292E0,9.485632144E0,-5.128613899E0,-9.994223546E0,1.470253046E1
7.546224292E0,7.567472345E0,-6.425725721E0,-6.776410140E0,1.201983041E1
7.556159292E0,6.024442420E0,-7.817392867E0,-4.288883564E0,1.076104363E1
7.566095292E0,4.387874587E0,-8.376765583E0,-2.096240406E0,9.685962464E0
7.576030292E0,2.989674346E0,-8.911623847E0,-7.239847735E-1,9.427584327E0
7.585965292E0,2.117866187E0,-9.162239018E0,-2.741852975E-1,9.407824328E0
7.595901292E0,2.067491255E0,-8.795809801E0,-4.750470954E-1,9.048008614E0
7.605836292E0,2.943825744E0,-7.311404060E0,-1.237116466E0,7.978295337E0
7.615772292E0,4.204107124E0,-5.710642821E0,-2.252959088E0,7.440549898E0
7.625707292E0,5.730192402E0,-4.746986014E0,-3.491632082E0,8.219517977E0
7.635642292E0,6.112655854E0,-4.551664160E0,-4.327276090E0,8.763990334E0
7.645578292E0,5.732977431E0,-5.407628412E0,-4.561459416E0,9.105843578E0
7.655513292E0,5.973980949E0,-6.446406738E0,-4.602611535E0,9.921120962E0
7.665448292E0,6.451259342E0,-7.166908836E0,-4.428083550E0,1.061090257E1
7.675384292E0,7.851320751E0,-8.365955835E0,-3.656385570E0,1.204166143E1
7.685319292E0,1.094036268E1,-9.599978539E0,-2.089749266E0,1.470435906E1
7.695255292E0,1.482964285E1,-1.008619440E1,2.269661075E-1,1.793602905E1
7.705190292E0,1.833078484E1,-1.109336677E1,3.427680500E0,2.169860486E1
7.715125292E0,2.088565322E1,-1.291896222E1,7.300872640E0,2.562055496E1
7.725061292E0,2.236425501E1,-1.438408268E1,1.044890187E1,2.856993677E1
7.734996292E0,2.181641768E1,-1.495011771E1,1.266177595E1,2.932205092E1
7.744932292E0,1.875931441E1,-1.524521382E1,1.349306992E1,2.768377427E1
7.754867292E0,1.385062716E1,-1.422523722E1,1.326075069E1,2.387561005E1
7.764802292E0,9.616672339E0,-1.198690669E1,1.163268588E1,1.927396430E1
7.774738292E0,6.459150159E0,-9.780993133E0,1.015822508E1,1.551057653E1
7.784673292E0,4.050235305E0,-7.824512436E0,9.888352690E0,1.324412775E1
7.794609292E0,2.506727078E0,-5.869759008E0,9.559418158E0,1.149435631E1
7.804544292E0,2.101160107E0,-4.197573445E0,8.473687860E0,9.686995539E0
7.814479292E0,1.966551940E0,-2.943847963E0,7.565726951E0,8.353070792E0
7.824415292E0,1.869503948E0,-1.869325608E0,7.707593266E0,8.148399671E0
7.834350292E0,1.742435766E0,-1.383109161E0,7.992717535E0,8.296541867E0
7.844286292E0,1.104564180E0,-1.543888881E0,7.593253303E0,7.826950276E0
7.854221292E0,4.806762099E-1,-1.880134771E0,6.405858051E0,6.693352953E0
7.864156292E0,-1.020713353E-1,-2.092393962E0,5.086524471E0,5.501023745E0
7.874092292E0,-6.150060493E-1,-2.330290854E0,4.004817642E0,4.674083038E0
7.884027292E0,-4.380716425E-1,-2.280154488E0,3.034718372E0,3.821063576E0
7.893963292E0,1.858712912E-2,-1.890445166E0,2.289850926E0,2.969435244E0
7.903898292E0,6.747055364E-1,-1.667182100E0,1.651080038E0,2.441472713E0
7.913833292E0,1.595591131E0,-1.221627776E0,1.388405862E0,2.442530720E0
7.923769292E0,2.454330178E0,-6.804825854E-1,1.221734488E0,2.824788193E0
7.933704292E0,3.840858791E0,-3.425462651E-1,7.992000666E-1,3.938052177E0
7.943640292E0,5.261038715E0,1.063731319E-1,5.082315060E-1,5.286600313E0
7.953575292E0,6.046783462E0,2.593158281E-1,5.357178050E-1,6.076004320E0
7.963510292E0,6.047214401E0,-8.931680381E-2,8.269673243E-1,6.104150593E0
7.973446292E0,5.499234985E0,-5.924936843E-1,1.423304676E0,5.711254712E0
7.983381292E0,4.878002236E0,-8.970494199E-1,2.340005710E0,5.484088821E0
7.993316292E0,4.548216934E0,-1.112102410E0,3.307281067E0,5.732465186E0
8.003252292E0,4.204652084E0,-1.389358081E0,3.655695598E0,5.742257860E0
8.013187292E0,3.713121688E0,-1.531381102E0,3.396436780E0,5.260055470E0
8.023123292E0,3.194805197E0,-1.640680765E0,3.076730032E0,4.729152282E0
8.033058292E0,3.032867728E0,-1.915398159E0,3.105789524E0,4.744782960E0
8.042993292E0,3.342483644E0,-2.093225436E0,3.280721844E0,5.130002481E0
8.052929292E0,3.488977154E0,-2.248376040E0,3.322817119E0,5.316885367E0
8.062864292E0,3.453213537E0,-2.381963868E0,3.569924546E0,5.508429619E0
8.072800292E0,3.122462860E0,-2.919769129E0,3.746533847E0,5.684306637E0
8.082735292E0,2.763354649E0,-3.350644019E0,3.304035863E0,5.457068557E0
8.092670292E0,2.064157465E0,-3.770433757E0,2.828053797E0,5.145367337E0
8.102606292E0,1.499862855E0,-4.397413734E0,1.957589182E0,5.041725056E0
8.112541292E0,1.203784413E0,-4.975884626E0,7.268434042E-1,5.170766486E0
8.122477292E0,1.037954453E0,-5.054583471E0,-1.958174050E-1,5.163768775E0
8.132412292E0,1.433658341E0,-4.829482040E0,-1.117660481E0,5.160274989E0
8.142347292E0,1.842248029E0,-4.586243132E0,-1.818443868E0,5.266330978E0
8.152283292E0,1.554210386E0,-4.674032643E0,-1.943990459E0,5.295398944E0
8.162218292E0,9.879476032E-1,-4.888613178E0,-2.232606100E0,5.464348934E0
8.172154292E0,2.469685552E-1,-5.656594668E0,-3.004996390E0,6.409996881E0
8.182089292E0,-9.340549859E-1,-6.901415425E0,-3.418830739E0,7.758247045E0
8.192024292E0,-2.282114182E0,-8.094156201E0,-3.707296107E0,9.190617726E0
8.201960292E0,-2.951745505E0,-9.510970468E0,-3.115729206E0,1.043451624E1
8.211895292E0,-2.579218811E0,-1.159318092E1,-1.325292478E0,1.195033948E1
8.221830292E0,-3.671712291E-1,-1.159153434E1,6.827539364E-1,1.161742812E1
8.231766292E0,2.010927045E0,-9.331829907E0,-1.013236226E-1,9.546577579E0
8.241701292E0,3.449390627E0,-7.485662781E0,-3.895628199E0,9.116433625E0
8.251637292E0,4.035386885E0,-6.762670938E0,-8.419651401E0,1.152859901E1
8.261572292E0,4.544293453E0,-6.918364749E0,-1.070066426E1,1.352843632E1
8.271507292E0,4.382500995E0,-7.883078148E0,-9.776277938E0,1.330130995E1
8.281443292E0,3.699911073E0,-9.094397868E0,-7.512151253E0,1.236243629E1
8.291378292E0,3.178045322E0,-1.055890203E1,-5.151539077E0,1.217081505E1
8.301314292E0,2.215893003E0,-1.175623170E1,-3.260307460E0,1.239954718E1
8.311249292E0,1.626112427E0,-1.173608453E1,-2.554350311E0,1.212042191E1
8.321184292E0,3.628534697E0,-9.948771969E0,-3.802759211E0,1.125190230E1
8.331120292E0,6.974957610E0,-6.866355520E0,-6.419576204E0,1.170503441E1
8.341055292E0,1.006510466E1,-3.303069903E0,-1.011309744E1,1.464552295E1
8.350991292E0,1.182768701E1,-1.571273877E0,-1.339139854E1,1.793579205E1
8.360926292E0,1.257793156E1,-1.364291944E0,-1.433179688E1,1.911716654E1
8.370861292E0,1.180218146E1,-1.496674368E0,-1.425799917E1,1.856938506E1
8.380797417E0,1.039799367E1,-2.142193528E0,-1.378152243E1,1.739648314E1
8.390732417E0,1.227283788E1,-5.408530052E0,-1.347648254E1,1.901289901E1
8.400668417E0,1.220454123E1,-6.313207750E0,-1.209701678E1,1.830697227E1
8.410603417E0,1.051614251E1,-5.893187047E0,-9.678556346E0,1.545941007E1
8.420538417E0,9.740122265E0,-5.845731629E0,-6.906116586E0,1.329424711E1
8.430474417E0,9.517388957E0,-6.100384887E0,-4.822177114E0,1.229019042E1
8.440409417E0,8.577941376E0,-6.518536820E0,-3.818999560E0,1.143053622E1
8.450344417E0,6.713487668E0,-6.999552754E0,-3.083067244E0,1.017693269E1
8.460280417E0,4.891036264E0,-7.482255024E0,-2.641076213E0,9.321033180E0
8.470215417E0,4.004275020E0,-7.515847278E0,-2.560832534E0,8.892695992E0
8.480151417E0,4.132008031E0,-7.031597250E0,-3.262228271E0,8.784018644E0
8.490086417E0,4.397763982E0,-6.409486833E0,-4.219174229E0,8.844392613E0
8.500021417E0,3.869597856E0,-6.818046409E0,-4.499550266E0,9.039109303E0
8.509957417E0,3.774647845E0,-7.877916226E0,-4.462106159E0,9.809175388E0
8.519892417E0,3.974310379E0,-8.715967240E0,-3.303371911E0,1.013289169E1
8.529828417E0,4.071718560E0,-9.882617741E0,-1.181087860E0,1.075360377E1
8.539763417E0,5.090370770E0,-1.074465754E1,1.280753944E0,1.195825535E1
8.549698417E0,6.683088579E0,-1.060469040E1,3.506762630E0,1.301616363E1
8.559634417E0,8.689750664E0,-9.438994752E0,4.107724544E0,1.347144348E1
8.569569417E0,1.098677086E1,-8.459610103E0,3.622282854E0,1.433161087E1
8.579505417E0,1.250330939E1,-8.603687836E0,3.715662888E0,1.562569489E1
8.589440417E0,1.286854519E1,-1.044960821E1,5.091720892E0,1.734126260E1
8.599375417E0,1.190946149E1,-1.312016842E1,7.732210629E0,1.933290391E1
8.609311417E0,1.089538122E1,-1.417551483E1,1.089418371E1,2.093651813E1
8.619246417E0,1.105336012E1,-1.254708983E1,1.203852123E1,2.060417984E1
8.629182417E0,1.145410372E1,-1.019118934E1,1.137748766E1,1.909198936E1
8.639117417E0,1.020010752E1,-8.653370458E0,1.091853970E1,1.726665928E1
8.649052417E0,8.316694213E0,-7.941381320E0,1.177507143E1,1.645859189E1
8.658988417E0,6.462382500E0,-7.051033394E0,1.351555831E1,1.655746889E1
8.668923417E0,5.124679307E0,-5.848910176E0,1.364315275E1,1.570374812E1
8.678859417E0,4.875206682E0,-4.481365718E0,1.179729552E1,1.352872723E1
8.688794417E0,4.784488885E0,-3.095252257E0,9.419445171E0,1.100899031E1
8.698729417E0,4.394838620E0,-2.241972755E0,6.973885816E0,8.542606845E0
8.708665417E0,4.255816391E0,-1.534411713E0,5.061215968E0,6.788394473E0
8.718600417E0,3.805259773E0,-9.653729653E-1,3.970588042E0,5.583683041E0
8.728536417E0,3.014059575E0,-1.100685137E0,3.184330494E0,4.520622035E0
8.738471417E0,2.952177907E0,-1.324445216E0,2.402287036E0,4.029949444E0
8.748406417E0,2.911116419E0,-1.209328743E0,1.959290868E0,3.711589352E0
8.758342417E0,2.796059588E0,-1.231083308E0,1.684114468E0,3.488517861E0
8.768277417E0,3.096884800E0,-1.180428879E0,1.484977013E0,3.631702704E0
8.778212417E0,3.473934315E0,-9.354919392E-1,1.189174560E0,3.789129310E0
8.788148417E0,3.983066000E0,-8.128156006E-1,6.510026783E-1,4.116951353E0
8.798083417E0,4.598652093E0,-6.448490685E-1,-1.509607825E-1,4.646097346E0
8.808019417E0,5.103546885E0,-5.468772161E-1,-8.911940181E-1,5.209557781E0
8.817954417E0,5.532839518E0,-5.762776011E-1,-1.276408293E0,5.707331000E0
8.827889417E0,5.485229149E0,-6.689939761E-1,-1.376350949E0,5.694702248E0
8.837825417E0,5.389330720E0,-7.570776021E-1,-9.827336410E-1,5.530263783E0
8.847760417E0,4.908256314E0,-1.088397798E0,-3.426181859E-1,5.039144475E0
8.857696417E0,3.698612992E0,-2.294878947E0,-2.700381598E-1,4.361092529E0
8.867631417E0,2.402004030E0,-3.241043224E0,-3.475220995E-1,4.049043856E0
8.877566417E0,1.620326023E0,-2.869880100E0,-5.305541289E-1,3.338136590E0
8.887502417E0,1.651365090E0,-2.158987316E0,-5.498230433E-1,2.773181975E0
8.897437417E0,1.679282036E0,-1.750635901E0,8.278487921E-3,2.425857116E0
8.907373417E0,8.496220690E-1,-2.065725980E0,4.555074549E-1,2.279598326E0
8.917308417E0,-1.588975006E-1,-2.472186990E0,5.220617791E-1,2.531700107E0
8.927243417E0,-6.682531339E-1,-2.686884470E0,-8.252964824E-1,2.889121785E0
8.937179417E0,-1.432430425E0,-3.574894679E0,-2.404323328E0,4.540099069E0
8.947114417E0,-2.877253147E0,-4.071723822E0,-2.180342809E0,5.441637191E0
8.957050417E0,-4.082997254E0,-4.250177920E0,-1.262159798E0,6.027265241E0
8.966985417E0,-3.554103734E0,-4.082423642E0,-9.188811690E-2,5.413527462E0
8.976920417E0,-2.350841770E0,-3.606079050E0,1.651005778E0,4.610432000E0
8.986856417E0,-1.556709486E0,-3.763146372E0,2.875331460E0,4.985192678E0
8.996791417E0,-1.067038285E0,-4.040570442E0,2.850739532E0,5.058803819E0
9.006726417E0,-3.807617663E-1,-4.561029938E0,2.361208007E0,5.150075424E0
9.016662417E0,-1.984264326E-1,-5.124205098E0,1.708894383E0,5.405291014E0
9.026597417E0,-9.493299598E-1,-5.823098227E0,1.132312142E0,6.007647719E0
9.036533417E0,-1.666117469E0,-6.211384921E0,4.473084891E-1,6.446497882E0
9.046468417E0,-1.793609135E0,-6.449818003E0,-5.786872387E-2,6.694814022E0
9.056403417E0,-1.423695124E0,-6.702214821E0,-1.856935358E-1,6.854274097E0
9.066339417E0,-1.254466031E0,-7.168689898E0,-2.196740448E-2,7.277656384E0
9.076274417E0,-1.148842805E0,-8.044408091E0,1.834584376E-1,8.128099305E0
9.086210417E0,-6.866394112E-1,-9.173541686E0,2.083032569E-1,9.201561334E0
9.096145417E0,2.736786363E-1,-9.709430814E0,-1.355244255E-1,9.714232528E0
9.106080417E0,1.462521951E0,-9.090883691E0,-1.438516207E0,9.319467025E0
9.116016417E0,2.764111571E0,-7.827305067E0,-3.969072151E0,9.201116841E0
9.125951417E0,3.784205119E0,-7.320767207E0,-6.409945255E0,1.044036585E1
9.135887417E0,3.944989516E0,-7.848981864E0,-7.176204740E0,1.134316416E1
9.145822417E0,3.085010859E0,-9.353925950E0,-5.995461865E0,1.153077559E1
9.155757417E0,2.040829121E0,-1.106164563E1,-4.164734312E0,1.199458208E1
9.165693417E0,2.475190120E0,-1.197671617E1,-3.035707721E0,1.260094511E1
9.175628417E0,3.579036262E0,-1.135481800E1,-3.255200210E0,1.234251680E1
9.185564417E0,4.649179637E0,-1.061470434E1,-4.080477104E0,1.228564662E1
9.195499417E0,6.303270991E0,-9.659767488E0,-5.201684214E0,1.265305701E1
9.205434417E0,8.543560917E0,-7.839915757E0,-7.167705227E0,1.363204718E1
9.215370417E0,1.025672377E1,-6.084956424E0,-9.557636511E0,1.528317679E1
9.225305417E0,1.110964191E1,-4.628721399E0,-1.186945250E1,1.690364185E1
9.235240417E0,1.177422709E1,-3.624580809E0,-1.338162433E1,1.818894937E1
9.245176417E0,1.230982970E1,-3.010517331E0,-1.316573460E1,1.827379790E1
9.255111417E0,1.222633029E1,-2.910248985E0,-1.213456994E1,1.746998824E1
9.265047417E0,1.121837440E1,-3.474682466E0,-1.144096035E1,1.639575909E1
9.274982417E0,9.480223469E0,-4.623771147E0,-1.098516288E1,1.522917267E1
9.284917417E0,7.480611956E0,-6.209402715E0,-1.020019990E1,1.409114315E1
9.294853417E0,5.943217578E0,-7.889693688E0,-9.061590310E0,1.340453358E1
9.304788417E0,5.481942430E0,-8.949668756E0,-7.209470134E0,1.273282071E1
9.314724417E0,5.626021332E0,-8.844697786E0,-5.145914640E0,1.167738123E1
9.324659417E0,5.540039195E0,-8.685662876E0,-3.972201873E0,1.104133876E1
9.334594417E0,5.439577598E0,-8.376184369E0,-3.852106495E0,1.070458750E1
9.344530417E0,5.376093208E0,-7.547977728E0,-4.132402718E0,1.014648206E1
9.354465417E0,4.997112358E0,-7.212268612E0,-3.829794105E0,9.573676062E0
9.364401417E0,4.398562127E0,-7.403014142E0,-3.161956708E0,9.173327499E0
9.374336417E0,3.895721462E0,-7.881492968E0,-2.720533442E0,9.203036419E0
9.384270792E0,3.923931354E0,-7.855767558E0,-2.360602820E0,9.093006481E0
9.394206792E0,4.521325589E0,-7.296542777E0,-1.983957640E0,8.810108370E0
9.404141792E0,5.397477645E0,-7.065050340E0,-1.964919398E0,9.105416491E0
9.414077792E0,6.838631532E0,-7.212406021E0,-2.131547795E0,1.016509606E1
9.424012792E0,8.779662715E0,-7.540189236E0,-1.726538356E0,1.170119079E1
9.433947792E0,1.073831331E1,-8.212725456E0,-7.565531069E-1,1.354003711E1
9.443883792E0,1.283358352E1,-9.096132737E0,4.927279061E-1,1.573795659E1
9.453818792E0,1.487022486E1,-1.034696736E1,2.242910648E0,1.825414937E1
9.463754792E0,1.552436107E1,-1.167827896E1,4.467026591E0,1.993344708E1
9.473689792E0,1.513656671E1,-1.275025134E1,7.154236166E0,2.104442102E1
9.483624792E0,1.359659488E1,-1.414269090E1,1.053837362E1,2.226971973E1
9.493560792E0,1.083479939E1,-1.473445252E1,1.302894367E1,2.245551919E1
9.503495792E0,7.534235017E0,-1.385588732E1,1.246394126E1,2.010224222E1
9.513430792E0,5.228638709E0,-1.233667193E1,9.845759232E0,1.662742048E1
9.523366792E0,3.189532177E0,-1.087243558E1,7.540858743E0,1.361056654E1
9.533301792E0,1.499602069E0,-9.770083398E0,7.042610480E0,1.213679111E1
9.543237792E0,6.930435741E-1,-8.510425916E0,8.190735247E0,1.183198219E1
9.553172792E0,2.377045190E-1,-7.461078163E0,9.491032632E0,1.207492821E1
9.563107792E0,-1.583923012E-1,-6.314078985E0,1.041962837E1,1.218447113E1
9.573043792E0,1.064590859E-1,-4.911218514E0,1.024988603E1,1.136624672E1
9.582978792E0,5.610339099E-1,-3.594699783E0,8.913300244E0,9.627229446E0
9.592914792E0,1.347220706E0,-2.556069977E0,6.976742765E0,7.551386427E0
9.602849792E0,2.512934482E0,-1.536580446E0,4.904878963E0,5.721342222E0
9.612784792E0,3.242105663E0,-5.459211963E-1,3.185299378E0,4.577708074E0
9.622720792E0,3.494232924E0,-5.312908781E-1,1.973661570E0,4.048119776E0
9.632655792E0,3.611714011E0,-8.101258814E-1,1.634925935E0,4.046450897E0
9.642591792E0,3.830933728E0,-8.256952626E-1,1.804806261E0,4.314527962E0
9.652526792E0,4.137365835E0,-7.071634305E-1,1.909822839E0,4.611431388E0
9.662461792E0,4.158380728E0,-7.766295218E-1,1.990827826E0,4.675326633E0
9.672397792E0,4.117657210E0,-1.057743185E0,2.189256012E0,4.781920475E0
9.682332792E0,4.244397948E0,-1.147711954E0,2.421016837E0,5.019310629E0
9.692268792E0,5.192515780E0,-8.741143012E-1,2.408447662E0,5.790243179E0
9.702203792E0,6.373124169E0,-2.424442720E-1,2.108739268E0,6.717311381E0
9.712138792E0,6.621113940E0,-1.050844055E-1,1.370821238E0,6.762347477E0
9.722074792E0,6.534206189E0,-2.859288454E-1,7.638691431E-1,6.584914722E0
9.732009792E0,6.258980672E0,-7.089035618E-1,3.333190665E-1,6.307811420E0
9.741944792E0,6.226880043E0,-1.133557014E0,-1.018193203E-1,6.330035841E0
9.751880792E0,6.261951057E0,-1.195381964E0,3.119343370E-3,6.375027750E0
9.761815792E0,5.817514721E0,-1.725719161E0,9.146346286E-2,6.068768385E0
9.771751792E0,5.320789658E0,-2.190982111E0,2.251144405E-1,5.758635403E0
9.781686792E0,4.487179019E0,-2.765663422E0,4.648969503E-1,5.291483619E0
9.791621792E0,3.248601919E0,-3.594055420E0,7.170165735E-1,4.897423972E0
9.801557792E0,1.971418578E0,-4.022818880E0,9.640900862E-1,4.582470147E0
9.811492792E0,6.442377421E-1,-4.208149889E0,1.161029572E0,4.412658770E0
9.821428792E0,-2.476722676E-1,-4.247948377E0,1.003494473E0,4.371888393E0
9.831363792E0,-6.559617019E-1,-4.286458139E0,9.227917868E-1,4.433458449E0
9.841298792E0,-3.493942317E-1,-4.466978644E0,1.657163481E0,4.777255000E0
9.851234792E0,3.294344687E-1,-5.037590293E0,2.474696031E0,5.622273870E0
9.861169792E0,6.858880439E-1,-5.730529202E0,2.833736706E0,6.429577829E0
9.871105792E0,5.888725036E-1,-6.269498059E0,2.586707340E0,6.807674463E0
9.881040792E0,2.762082879E-1,-6.721229966E0,1.736166381E0,6.947337402E0
9.890975792E0,1.732956845E-1,-6.927009857E0,1.066555816E0,7.010780147E0
9.900911792E0,7.602470854E-1,-6.960030254E0,7.773279718E-1,7.044447142E0
9.910846792E0,1.250846020E0,-6.763774892E0,1.696736267E-1,6.880556351E0
9.920782792E0,8.786488169E-1,-6.800915236E0,-9.902832735E-1,6.928573645E0
9.930717792E0,5.203302723E-1,-7.045955672E0,-1.695279433E0,7.265686980E0
9.940652792E0,2.923259917E-1,-7.324129940E0,-2.321765906E0,7.688883585E0
9.950588792E0,-1.091555294E-1,-7.928751919E0,-2.821428025E0,8.416500343E0
9.960523792E0,-3.248604843E-1,-8.880791479E0,-3.065139389E0,9.400482493E0
9.970458792E0,9.163054705E-2,-9.653018632E0,-3.050400020E0,1.012393724E1
9.980394792E0,1.115118989E0,-9.994818792E0,-2.989399527E0,1.049173020E1
9.990329792E0,1.931075714E0,-9.649788045E0,-3.529080283E0,1.045475348E1
1.000026579E1,2.001276800E0,-9.590232400E0,-4.632603366E0,1.083691286E1
1.001020079E1,2.161819707E0,-1.005748223E1,-5.344138759E0,1.159250760E1
1.002013579E1,3.103606174E0,-1.021815670E1,-5.424281282E0,1.197772621E1
1.003007179E1,3.865397217E0,-1.038533094E1,-4.700380197E0,1.203702489E1
1.004000679E1,4.365354035E0,-1.091933375E1,-4.015002907E0,1.242611821E1
1.004994279E1,5.215924523E0,-1.134562618E1,-4.210832591E0,1.317802008E1
1.005987779E1,6.265511427E0,-1.107460890E1,-5.074017277E0,1.369851259E1
1.006981279E1,7.368681630E0,-9.772464384E0,-6.587819894E0,1.389956474E1
1.007974879E1,9.342476517E0,-7.617660751E0,-9.342508092E0,1.525100260E1
1.008968379E1,1.200154110E1,-5.413688466E0,-1.239895062E1,1.808532522E1
1.009961979E1,1.477566135E1,-2.785477297E0,-1.525756080E1,2.142130280E1
1.010955479E1,1.522424337E1,-1.240449963E0,-1.731002120E1,2.308577779E1
1.011948979E1,1.496102511E1,-2.315544761E0,-1.708055775E1,2.282409851E1
1.012942579E1,1.506479915E1,-3.660322500E0,-1.351064314E1,2.056413413E1
1.013936079E1,1.413196360E1,-4.920827828E0,-9.622898455E0,1.779120897E1
1.014929579E1,1.266235600E1,-6.620185987E0,-6.746639042E0,1.580124236E1
1.015923179E1,1.195070541E1,-7.501827993E0,-3.744040010E0,1.459844576E1
1.016916679E1,1.065803221E1,-7.766666517E0,-1.774413604E0,1.330651356E1
1.017910279E1,8.464584914E0,-8.478946261E0,-1.613650841E0,1.208906930E1
1.018903779E1,6.137011262E0,-9.002839826E0,-2.426019130E0,1.116241914E1
1.019897279E1,4.653777303E0,-8.789997668E0,-3.999821196E0,1.072008730E1
1.020890879E1,4.165610810E0,-7.619363460E0,-6.222951883E0,1.068326463E1
1.021884379E1,4.262608516E0,-7.061181822E0,-7.977539917E0,1.147480994E1
1.022877979E1,3.881904491E0,-7.504938712E0,-8.642139126E0,1.208635000E1
1.023871479E1,3.298933582E0,-8.390733411E0,-7.795393302E0,1.191870491E1
1.024864979E1,3.415201373E0,-1.005459488E1,-6.129080683E0,1.226067325E1
1.025858579E1,3.618947017E0,-1.157247827E1,-3.727018473E0,1.268501862E1
1.026852079E1,4.707575780E0,-1.247342427E1,-1.449984936E0,1.341081799E1
1.027845679E1,6.856714631E0,-1.278117025E1,2.195325422E-1,1.450589683E1
1.028839179E1,9.413957559E0,-1.265657310E1,1.222225361E0,1.582103898E1
1.029832679E1,1.248937665E1,-1.285779216E1,1.368756586E0,1.797723123E1
1.030826279E1,1.471005793E1,-1.429906299E1,2.167479227E0,2.062878991E1
1.031819779E1,1.539225960E1,-1.615697484E1,4.359097515E0,2.273700118E1
1.032813379E1,1.667983988E1,-1.663163309E1,7.428932510E0,2.469852862E1
1.033806879E1,1.815140162E1,-1.531242640E1,1.091053837E1,2.613395551E1
1.034800379E1,1.840412413E1,-1.300767033E1,1.373219999E1,2.639099447E1
1.035793979E1,1.671842448E1,-1.088424812E1,1.560793766E1,2.532943529E1
1.036787479E1,1.358915371E1,-9.222352488E0,1.674072693E1,2.345141408E1
1.037781079E1,9.275211318E0,-8.770995387E0,1.708066066E1,2.132390381E1
1.038774667E1,5.354248595E0,-8.736545931E0,1.685779170E1,1.972765454E1
1.039768167E1,2.338502391E0,-7.880557414E0,1.521425398E1,1.729292638E1
1.040761767E1,1.032150507E0,-6.949141569E0,1.213164399E1,1.401901170E1
1.041755267E1,2.023657018E0,-5.542591504E0,8.632680085E0,1.045651346E1
1.042748767E1,3.825318646E0,-3.446648283E0,5.535431589E0,7.559990080E0
1.043742367E1,5.246508384E0,-1.616966212E0,3.540968549E0,6.532908099E0
1.044735867E1,6.533886931E0,-4.654769576E-1,2.798493199E0,7.123195309E0
1.045729467E1,7.881214056E0,2.371414322E-1,2.161797488E0,8.175765373E0
1.046722967E1,8.615847121E0,4.170970953E-1,1.382592852E0,8.736037694E0
1.047716467E1,9.279777408E0,3.386122584E-1,7.927362621E-1,9.319729491E0
1.048710067E1,8.623420435E0,-3.507276893E-1,4.927077332E-1,8.644602409E0
1.049703567E1,7.179949881E0,-1.721305098E0,9.549561507E-1,7.444898441E0
1.050697167E1,5.581880701E0,-2.635683326E0,1.715488288E0,6.406802542E0
1.051690667E1,4.287141679E0,-3.314738606E0,1.686166255E0,5.675405928E0
1.052684167E1,3.294574483E0,-3.373795484E0,1.244361750E0,4.877002477E0
1.053677767E1,2.693683028E0,-3.142707675E0,7.960925639E-1,4.215009271E0
1.054671267E1,3.026106593E0,-2.962329258E0,5.030958965E-2,4.235002574E0
1.055664867E1,3.288798019E0,-2.728051207E0,-4.437932892E-1,4.295975824E0
1.056658367E1,2.881135406E0,-2.778191081E0,-1.800461487E-1,4.006457728E0
1.057651867E1,2.100149124E0,-2.993972050E0,4.908211291E-1,3.689905196E0
1.058645467E1,1.167143713E0,-3.358278143E0,8.908339758E-1,3.665220554E0
1.059638967E1,1.264603642E-1,-3.883001429E0,6.506524301E-1,3.939167540E0
1.060632467E1,-9.193536240E-1,-4.274012926E0,4.472272128E-1,4.394588690E0
1.061626067E1,-1.581500218E0,-4.554910827E0,7.941735077E-1,4.886621240E0
1.062619567E1,-1.566853235E0,-4.746400707E0,1.179275735E0,5.135566181E0
1.063613167E1,-9.397256157E-1,-4.506742634E0,8.835938072E-1,4.687702146E0
1.064606667E1,-1.964576751E-1,-4.242095899E0,7.867696171E-1,4.318909546E0
1.065600167E1,3.936865979E-1,-4.154110506E0,9.460870939E-1,4.278633430E0
1.066593767E1,1.156097153E0,-4.238853618E0,1.433612148E0,4.621653861E0
1.067587267E1,2.443623050E0,-4.081192219E0,1.427696812E0,4.966461690E0
1.068580867E1,3.362633442E0,-3.555764344E0,8.596155453E-1,4.968873375E0
1.069574367E1,2.694830251E0,-2.958942550E0,-3.063435218E-1,4.013888072E0
1.070567867E1,1.506901733E0,-3.137391971E0,-1.946072652E0,3.987628365E0
1.071561467E1,1.344628635E-1,-3.802591104E0,-3.143411679E0,4.935465161E0
1.072554967E1,-1.059027234E0,-4.243957652E0,-3.731894174E0,5.749760809E0
1.073548467E1,-1.937845328E0,-4.585035097E0,-3.754441330E0,6.234871374E0
1.074542067E1,-2.718388098E0,-5.261490120E0,-3.193934546E0,6.728605355E0
1.075535567E1,-3.195128255E0,-6.101577135E0,-1.994371823E0,7.170467702E0
1.076529167E1,-2.805815082E0,-7.119810684E0,-2.988491455E-1,7.658564700E0
1.077522667E1,-1.560068126E0,-7.494728889E0,1.102710028E0,7.734387053E0
1.078516167E1,-2.535525200E-1,-6.990103068E0,1.311861131E0,7.116657180E0
1.079509767E1,3.982199442E-1,-6.620300007E0,1.368803948E-2,6.632280051E0
1.080503267E1,3.735142887E-1,-6.851833960E0,-2.569485828E0,7.327305027E0
1.081496867E1,5.017799807E-1,-7.355002654E0,-5.174570675E0,9.006887857E0
1.082490367E1,1.287028883E0,-8.224154423E0,-5.953590539E0,1.023417801E1
1.083483867E1,1.512646038E0,-9.808870903E0,-4.742123469E0,1.099953551E1
1.084477467E1,8.298070246E-1,-1.124014475E1,-2.477612622E0,1.153984393E1
1.085470967E1,4.764556897E-1,-1.214758818E1,-9.109814344E-1,1.219101291E1
1.086464567E1,7.758606130E-1,-1.272779102E1,-1.329751857E-1,1.275210987E1
1.087458067E1,2.051159981E0,-1.212625871E1,1.131421611E-2,1.229851761E1
1.088451567E1,4.145325065E0,-9.947657490E0,-1.033550477E0,1.082625679E1
1.089445167E1,6.790196121E0,-7.382275822E0,-3.099544113E0,1.049818715E1
1.090438667E1,9.627465715E0,-5.196205373E0,-5.765275111E0,1.236636743E1
1.091432167E1,1.197656180E1,-3.613418475E0,-8.396646701E0,1.506646944E1
1.092425767E1,1.292504801E1,-2.681177003E0,-1.042157081E1,1.681828512E1
1.093419267E1,1.293255349E1,-2.052561559E0,-1.196483813E1,1.773756748E1
1.094412867E1,1.190773422E1,-1.885342593E0,-1.318921118E1,1.786907783E1
1.095406367E1,1.015516231E1,-2.778492213E0,-1.398956870E1,1.750872277E1
1.096399867E1,8.492332292E0,-4.458924104E0,-1.355107547E1,1.660220944E1
1.097393467E1,8.991193927E0,-5.771728683E0,-1.051978415E1,1.499400810E1
1.098386967E1,1.019920705E1,-5.758884104E0,-6.691039038E0,1.348920212E1
1.099380567E1,1.087034929E1,-6.115611037E0,-4.760709429E0,1.335026390E1
1.100374067E1,1.121710672E1,-6.247299689E0,-4.082669810E0,1.347295177E1
1.101367567E1,1.064177461E1,-6.024847047E0,-4.197289270E0,1.292916803E1
1.102361167E1,9.077454976E0,-6.385691589E0,-5.044749624E0,1.219125689E1
1.103354667E1,6.808708990E0,-7.282399532E0,-6.202198361E0,1.174134258E1
1.104348267E1,4.293599929E0,-8.162017232E0,-6.409301476E0,1.123088024E1
1.105341767E1,2.094395463E0,-8.954984459E0,-5.973561119E0,1.096638826E1
1.106335267E1,6.789143622E-1,-9.086775438E0,-5.225567751E0,1.050414065E1
1.107328867E1,5.299261379E-1,-8.726648934E0,-4.469032770E0,9.818730938E0
1.108322367E1,1.661973401E0,-8.238552023E0,-3.585034336E0,9.137196846E0
1.109315967E1,3.845925404E0,-7.525867651E0,-2.397721237E0,8.785151862E0
1.110309467E1,5.807194385E0,-7.685774966E0,-1.508346873E0,9.750371980E0
1.111302967E1,7.227997037E0,-8.773622541E0,-9.689614016E-1,1.140873700E1
1.112296567E1,8.726607419E0,-9.557911915E0,-5.879296401E-1,1.295581022E1
1.113290067E1,1.105836183E1,-1.029727070E1,-3.319926256E-1,1.511394619E1
1.114283567E1,1.308580901E1,-1.154321295E1,6.605874342E-1,1.746197407E1
1.115277167E1,1.431164269E1,-1.321585811E1,2.343176948E0,1.962071610E1
1.116270667E1,1.651212302E1,-1.411791859E1,4.027367429E0,2.209492069E1
1.117264267E1,1.782001184E1,-1.450460899E1,6.302199197E0,2.382549515E1
1.118257767E1,1.802785463E1,-1.449484414E1,8.894187450E0,2.478327298E1
1.119251267E1,1.785542960E1,-1.304720687E1,1.083580745E1,2.462642272E1
1.120244867E1,1.646956348E1,-1.093434122E1,1.196580643E1,2.310815576E1
1.121238367E1,1.366150482E1,-9.692736429E0,1.335580654E1,2.142343160E1
1.122231967E1,9.960347117E0,-8.545264796E0,1.404958101E1,1.922552449E1
1.123225467E1,5.924726928E0,-8.104578863E0,1.317630052E1,1.656506816E1
1.124218967E1,2.315451205E0,-8.047388417E0,1.219187967E1,1.479066275E1
1.125212567E1,-2.405822262E-1,-7.379384959E0,1.062675195E1,1.293990182E1
1.126206067E1,-1.462499732E0,-6.103154129E0,8.053042089E0,1.020974450E1
1.127199667E1,-1.083255756E0,-4.428485253E0,6.072122371E0,7.593128127E0
1.128193167E1,4.474087688E-1,-2.724786122E0,4.987667350E0,5.701005141E0
1.129186667E1,2.040691127E0,-1.342282147E0,4.003349406E0,4.689663965E0
1.130180267E1,3.038222024E0,-6.389878196E-1,2.998883126E0,4.316526208E0
1.131173767E1,3.369506259E0,-7.286496091E-1,2.502090821E0,4.259690266E0
1.132167267E1,3.131816358E0,-1.217576825E0,2.523710901E0,4.202366445E0
1.133160867E1,2.601396423E0,-1.886094253E0,2.887138742E0,4.319743626E0
1.134154367E1,2.316076857E0,-2.278398569E0,3.218182949E0,4.572965509E0
1.135147967E1,2.419455630E0,-2.155383677E0,3.575718552E0,4.825474847E0
1.136141467E1,3.178007315E0,-1.708536533E0,3.705991008E0,5.172349267E0
1.137134967E1,4.622801678E0,-1.096444151E0,3.677654817E0,6.008130332E0
1.138128567E1,5.801246597E0,-7.195875943E-1,3.654484055E0,6.894020750E0
1.139122017E1,6.601301819E0,-7.996412390E-1,3.275739432E0,7.412629806E0
1.140115617E1,7.211282187E0,-9.852160764E-1,2.695371119E0,7.761331520E0
1.141109117E1,7.441498761E0,-1.308941908E0,2.134928362E0,7.851570024E0
1.142102617E1,6.836779718E0,-1.852437680E0,1.750897272E0,7.296487068E0
1.143096217E1,5.971618089E0,-2.307310127E0,1.701142729E0,6.624031190E0
1.144089717E1,4.787088850E0,-2.462963592E0,1.887688789E0,5.704890733E0
1.145083317E1,3.918581151E0,-2.683057467E0,2.040808948E0,5.169040218E0
1.146076817E1,3.447756623E0,-2.995093546E0,2.255912517E0,5.093795477E0
1.147070317E1,2.941122868E0,-3.451225483E0,1.872272897E0,4.905768733E0
1.148063917E1,3.159136012E0,-3.387442886E0,9.216603506E-1,4.722749988E0
1.149057417E1,4.452271727E0,-2.802207935E0,4.583889627E-1,5.280645158E0
1.150050917E1,5.692763790E0,-2.699789860E0,3.147914328E-2,6.300588527E0
1.151044517E1,5.926047814E0,-2.695533671E0,1.715561378E-1,6.512555257E0
1.152038017E1,5.457833190E0,-2.765030168E0,-7.205125507E-1,6.160557872E0
1.153031617E1,4.286203201E0,-3.111841393E0,-1.834436442E0,5.605377043E0
1.154025117E1,2.770269858E0,-3.485299548E0,-1.992424554E0,4.877649396E0
1.155018617E1,1.161842627E0,-4.024778282E0,-2.026237979E0,4.653424423E0
1.156012217E1,7.264229894E-2,-4.509172736E0,-2.381358097E0,5.099880592E0
1.157005717E1,-1.005019426E-1,-4.831488805E0,-2.772657276E0,5.571446229E0
1.157999317E1,5.061212459E-1,-4.766203473E0,-2.738579411E0,5.520205743E0
1.158992817E1,1.121785692E0,-4.477002525E0,-2.203143442E0,5.114273729E0
1.159986317E1,8.941462773E-1,-4.458572686E0,-2.092828994E0,5.005826721E0
1.160979917E1,1.337451178E-1,-4.821081930E0,-2.799603877E0,5.576602963E0
1.161973417E1,-7.492025721E-1,-5.553480189E0,-3.544920098E0,6.630905308E0
1.162966917E1,-9.411070204E-1,-5.855481861E0,-3.733197810E0,7.007789676E0
1.163960517E1,-7.460085306E-1,-5.905936316E0,-3.473921451E0,6.892368442E0
1.164954017E1,-4.908778471E-1,-6.413713201E0,-2.613634061E0,6.943180905E0
1.165947617E1,-4.940832907E-1,-7.475088091E0,-1.588351839E0,7.657931956E0
1.166941117E1,2.518161893E-2,-8.560659930E0,-8.513833965E-1,8.602928934E0
1.167934617E1,3.181241995E-1,-9.423467470E0,-7.609725787E-1,9.459493720E0
1.168928217E1,3.075957030E-1,-1.001476014E1,-1.309868838E0,1.010474107E1
1.169921717E1,1.016208658E0,-9.739866157E0,-2.471568355E0,1.009981796E1
1.170915317E1,2.230811589E0,-8.395055088E0,-3.947854359E0,9.541437225E0
1.171908817E1,3.646195042E0,-7.296482551E0,-5.675181797E0,9.936854851E0
1.172902317E1,4.112024002E0,-6.940204684E0,-6.670715286E0,1.046774211E1
1.173895917E1,4.386126854E0,-6.666409981E0,-6.489358045E0,1.028547027E1
1.174889417E1,4.883189301E0,-6.656548651E0,-6.391399641E0,1.044055396E1
1.175883017E1,5.524855145E0,-6.874631084E0,-6.636532463E0,1.103757854E1
1.176876517E1,5.466253765E0,-6.756984521E0,-6.820967678E0,1.104818402E1
1.177870017E1,6.464326115E0,-6.747069397E0,-7.782007856E0,1.216018519E1
1.178863617E1,9.312539358E0,-5.975528707E0,-8.130678495E0,1.373092369E1
1.179857117E1,1.257431564E1,-3.839943117E0,-8.440831770E0,1.562389893E1
1.180850617E1,1.411230643E1,-2.831361860E0,-1.026161672E1,1.767695054E1
1.181844217E1,1.390155875E1,-3.140654717E0,-1.273997194E1,1.911606478E1
1.182837717E1,1.228564796E1,-4.027083547E0,-1.410711411E1,1.913544397E1
1.183831317E1,1.018672558E1,-6.004349633E0,-1.415036128E1,1.844056173E1
1.184824817E1,8.607515423E0,-7.989913210E0,-1.320033258E1,1.766852612E1
1.185818317E1,8.066487762E0,-8.903489785E0,-1.111866534E1,1.636963879E1
1.186811917E1,7.504782007E0,-9.885721443E0,-8.732914810E0,1.517606808E1
1.187805417E1,7.130080149E0,-1.058090627E1,-6.043357578E0,1.411792446E1
1.188799017E1,7.570530438E0,-1.008038695E1,-3.129638563E0,1.298929442E1
1.189792517E1,7.151616029E0,-9.342614511E0,-1.526130302E0,1.186419536E1
1.190786017E1,6.199274753E0,-9.363911240E0,-1.718750596E0,1.136080740E1
1.191779617E1,5.584935871E0,-9.304073174E0,-2.751917202E0,1.119510315E1
1.192773117E1,5.619373047E0,-8.907810878E0,-3.617101344E0,1.113597190E1
1.193766717E1,5.682549289E0,-9.174557932E0,-3.974285528E0,1.150038369E1
1.194760217E1,6.122164012E0,-1.020987120E1,-4.132512061E0,1.260158792E1
1.195753717E1,6.411951435E0,-1.183051706E1,-3.190928785E0,1.382954380E1
1.196747317E1,6.508816994E0,-1.338613137E1,-1.126702323E0,1.492724589E1
1.197740817E1,8.295912039E0,-1.375970413E1,4.550560498E-1,1.607354006E1
1.198734417E1,1.133304765E1,-1.363709971E1,1.940085688E0,1.783738742E1
1.199727917E1,1.428399706E1,-1.342598131E1,4.086623113E0,2.002473557E1
1.200721417E1,1.749880792E1,-1.285314596E1,6.247343543E0,2.259294007E1
1.201715017E1,2.099762038E1,-1.251231176E1,7.765737394E0,2.564692349E1
1.202708517E1,2.287081100E1,-1.240320506E1,8.434761776E0,2.735066174E1
1.203702017E1,2.076248513E1,-1.318936086E1,8.423619322E0,2.599994983E1
1.204695617E1,1.538333675E1,-1.529191670E1,8.410515127E0,2.326427585E1
1.205689117E1,9.680501130E0,-1.652523715E1,1.062240513E1,2.190048072E1
1.206682717E1,5.027213824E0,-1.512616568E1,1.481147438E1,2.175898758E1
1.207676217E1,1.464465566E0,-1.160974023E1,1.753641721E1,2.108214069E1
1.208669717E1,-4.565900669E-1,-8.249319085E0,1.687317455E1,1.878732976E1
1.209663317E1,6.359987229E-2,-6.403782290E0,1.272482531E1,1.424547829E1
1.210656817E1,1.903196482E0,-4.635327584E0,7.907831166E0,9.361741954E0
1.211650417E1,3.804529164E0,-2.626503198E0,4.450522240E0,6.417173008E0
1.212643917E1,5.808151574E0,-9.527102351E-1,2.240223268E0,6.297688607E0
1.213637417E1,6.953104227E0,-3.449716902E-1,7.629669178E-1,7.003340801E0
1.214631017E1,6.713078363E0,-5.537114418E-1,6.166765988E-1,6.764045202E0
1.215624517E1,5.898053684E0,-1.008547052E0,1.558075395E0,6.183187152E0
1.216618117E1,4.917342888E0,-1.699379209E0,2.873295459E0,5.943397813E0
1.217611617E1,3.922458440E0,-2.386144627E0,4.270190016E0,6.270078881E0
1.218605117E1,3.265741570E0,-2.512646799E0,5.071613486E0,6.534502682E0
1.219598717E1,3.532127852E0,-2.049836757E0,4.636583858E0,6.178646111E0
1.220592217E1,3.952166096E0,-1.690992547E0,3.232291696E0,5.378362414E0
1.221585717E1,3.921235787E0,-1.565410727E0,1.792800758E0,4.587018138E0
1.222579317E1,3.593227454E0,-1.571571938E0,9.614740419E-1,4.038013649E0
1.223572817E1,3.352039749E0,-1.742956168E0,8.368105271E-1,3.869666464E0
1.224566417E1,3.336230047E0,-2.105519791E0,1.027724165E0,4.076746433E0
1.225559917E1,3.111004364E0,-2.692653918E0,1.706203640E0,4.454196239E0
1.226553417E1,2.695619333E0,-3.412583574E0,2.275124713E0,4.907981530E0
1.227547017E1,2.474256028E0,-3.663067768E0,2.564073061E0,5.110232776E0
1.228540517E1,2.305596600E0,-3.651913619E0,2.522809260E0,5.001681250E0
1.229534117E1,1.972214969E0,-3.476409441E0,2.371215516E0,4.647334452E0
1.230527617E1,1.406899435E0,-3.331530055E0,2.328857117E0,4.301399075E0
1.231521117E1,1.048879391E0,-3.253152223E0,2.012453753E0,3.966499397E0
1.232514717E1,1.000143433E0,-2.960382135E0,1.864543755E0,3.638773514E0
1.233508217E1,1.121696814E0,-2.741389875E0,1.107607071E0,3.162311752E0
1.234501717E1,1.453200028E0,-3.067679712E0,-9.299803537E-1,3.519561420E0
1.235495317E1,1.101178350E0,-3.618718391E0,-1.279776143E0,3.993187139E0
1.236488817E1,3.623402596E-1,-3.972745079E0,-9.074308589E-2,3.990266687E0
1.237482417E1,1.742259765E-1,-4.159786983E0,3.097011392E-1,4.174936794E0
1.238475883E1,4.848215935E-1,-4.158407040E0,1.389992796E-1,4.188880744E0
1.239469383E1,6.632952797E-1,-4.436132827E0,3.908781803E-1,4.502446095E0
1.240462983E1,5.751473343E-1,-5.347141305E0,7.112523884E-1,5.424812858E0
1.241456483E1,1.310638770E-1,-6.274592738E0,6.868775390E-1,6.313437456E0
1.242450083E1,-3.376117998E-1,-6.819543296E0,4.226189134E-1,6.840961865E0
1.243443583E1,-3.859565789E-1,-7.225631838E0,1.102713244E-1,7.236772603E0
1.244437083E1,-3.984175801E-2,-7.727722306E0,2.211004731E-1,7.730987313E0
1.245430683E1,1.009897174E0,-8.127042112E0,2.002740066E-1,8.191997038E0
1.246424183E1,2.070249971E0,-7.761099383E0,-3.782578424E-1,8.041372866E0
1.247417783E1,2.551435474E0,-7.164258878E0,-2.023843690E0,7.869712290E0
1.248411283E1,2.270384375E0,-6.942651744E0,-4.663704121E0,8.666325322E0
1.249404783E1,1.602332386E0,-7.348934414E0,-6.554452758E0,9.976730780E0
1.250398383E1,8.777009833E-1,-8.678852039E0,-5.659610662E0,1.039827027E1
1.251391883E1,1.570439333E-1,-9.938689030E0,-3.445858324E0,1.052027291E1
1.252385383E1,-3.218365967E-1,-1.200927931E1,-1.368342603E0,1.209126668E1
1.253378983E1,-8.113865411E-1,-1.358062613E1,3.901724213E-1,1.361043676E1
1.254372483E1,6.564446819E-1,-1.308819234E1,5.747362751E-1,1.311724133E1
1.255366083E1,2.863134753E0,-1.144214149E1,-1.184776869E0,1.185427513E1
1.256359583E1,5.533917745E0,-9.483712503E0,-3.448083190E0,1.150888032E1
1.257353083E1,9.332259092E0,-6.427670504E0,-6.942216711E0,1.328910760E1
1.258346683E1,1.236781420E1,-3.542478593E0,-1.111433138E1,1.700118657E1
1.259340183E1,1.429098448E1,-1.815511343E0,-1.378451152E1,1.993843215E1
1.260333783E1,1.471797740E1,-1.338829074E0,-1.467952143E1,2.083025856E1
1.261327283E1,1.404851916E1,-1.630263658E0,-1.458015268E1,2.031254544E1
1.262320783E1,1.315170246E1,-1.705331967E0,-1.366499677E1,1.904225752E1
1.263314383E1,1.073788647E1,-2.722156629E0,-1.244904606E1,1.666406584E1
1.264307883E1,7.872651393E0,-4.760579621E0,-1.131326301E1,1.458189556E1
1.265301483E1,5.328324380E0,-6.587816386E0,-9.827733436E0,1.297592809E1
1.266294983E1,2.843526700E0,-8.152595029E0,-8.749503361E0,1.229244723E1
1.267288483E1,1.516218102E0,-9.376776284E0,-7.977418295E0,1.240411438E1
1.268282083E1,1.163921020E0,-1.058765278E1,-7.233185856E0,1.287525073E1
1.269275583E1,2.045716224E0,-1.138506448E1,-6.109422929E0,1.308165496E1
1.270269083E1,4.639732291E0,-1.058226633E1,-4.091130146E0,1.225760263E1
1.271262683E1,6.094442947E0,-9.560409261E0,-3.447009056E0,1.185012791E1
1.272256183E1,5.961516439E0,-9.116308554E0,-3.655964570E0,1.148968393E1
1.273249783E1,4.735773393E0,-9.658458881E0,-3.701904974E0,1.137618029E1
1.274243283E1,3.369424691E0,-1.016509907E1,-3.546547962E0,1.128096912E1
1.275236783E1,3.181741347E0,-1.042651405E1,-2.926393440E0,1.128713656E1
1.276230383E1,4.338332883E0,-9.913280540E0,-2.800594103E0,1.117754851E1
1.277223883E1,6.613463443E0,-8.724260931E0,-2.731942237E0,1.128335659E1
1.278217483E1,9.351864806E0,-8.613260897E0,-1.733901755E0,1.283168165E1
1.279210983E1,1.246208535E1,-9.492444735E0,-4.858094805E-1,1.567310082E1
1.280204483E1,1.472956541E1,-1.080581474E1,1.145527434E0,1.830404225E1
1.281198083E1,1.544777307E1,-1.173551384E1,3.648605849E0,1.974001779E1
1.282191583E1,1.670975540E1,-1.174974830E1,6.140067016E0,2.133009455E1
1.283185183E1,1.814511937E1,-1.098674279E1,8.304746597E0,2.277987468E1
1.284178683E1,1.797723997E1,-1.006009360E1,9.945312756E0,2.287566143E1
1.285172183E1,1.598066842E1,-1.019393520E1,1.058958120E1,2.171260712E1
1.286165783E1,1.350847149E1,-1.061383194E1,1.058647749E1,2.017933934E1
1.287159283E1,1.133118122E1,-1.091079682E1,9.167392754E0,1.820665386E1
1.288152783E1,7.802070823E0,-1.188930965E1,7.353434431E0,1.600940320E1
1.289146383E1,3.227195848E0,-1.324211678E1,6.970634179E0,1.530876190E1
1.290139883E1,-8.452998072E-1,-1.394020533E1,7.735286264E0,1.596491497E1
1.291133483E1,-3.709899872E0,-1.338298089E1,9.324034984E0,1.672737764E1
1.292126983E1,-4.270999271E0,-1.049137955E1,1.108585310E1,1.584949900E1
1.293120483E1,-2.980663787E0,-6.906804804E0,1.183218235E1,1.402101453E1
1.294114083E1,-1.262201021E0,-4.701148521E0,1.046587165E1,1.154246154E1
1.295107583E1,5.059642482E-1,-3.294359306E0,7.115487252E0,7.857414454E0
1.296101183E1,1.440027713E0,-2.178157412E0,3.560686822E0,4.415488667E0
1.297094683E1,1.168019333E0,-2.031860662E0,9.597409272E-1,2.532553960E0
1.298088183E1,3.824254453E-1,-2.326521154E0,-1.659436879E-1,2.363575091E0
1.299081783E1,-4.208796591E-1,-2.693480129E0,-5.685876355E-1,2.784827965E0
1.300075283E1,-1.074622343E0,-2.854137642E0,-5.538845193E-1,3.099629481E0
1.301068783E1,-1.558880557E0,-2.813432835E0,-1.542447250E-1,3.220140423E0
1.302062383E1,-1.776115143E0,-2.720849776E0,2.024820614E-1,3.255550260E0
1.303055883E1,-2.051903163E0,-2.665387766E0,3.357541394E-1,3.380433312E0
1.304049483E1,-2.011263260E0,-2.675647876E0,3.285515392E-1,3.363364026E0
1.305042983E1,-1.105540080E0,-2.471044444E0,2.698373810E-1,2.720494758E0
1.306036483E1,2.154318899E-1,-2.202494693E0,-4.222552165E-2,2.213408405E0
1.307030083E1,1.210729151E0,-2.003630889E0,-6.294176817E-1,2.424163450E0
1.308023583E1,1.435116636E0,-2.007869536E0,-1.697664805E0,2.995524265E0
1.309017183E1,6.053382629E-1,-2.288395554E0,-2.696828245E0,3.588324289E0
1.310010683E1,-5.241444111E-1,-2.511723524E0,-3.809495789E0,4.593009970E0
1.311004183E1,-9.537352520E-1,-3.042516804E0,-4.346206158E0,5.390364311E0
1.311997783E1,2.342160702E-2,-3.671766670E0,-4.126470133E0,5.523601616E0
1.312991283E1,-1.906999218E0,-2.761700764E0,-3.685040435E0,4.984291337E0
1.313984883E1,-2.274399074E0,-1.600324452E0,-3.471364464E0,4.447954669E0
1.314978383E1,-1.203573913E0,-1.295224341E0,-3.258708247E0,3.707475650E0
1.315971883E1,-6.565370679E-1,-1.150126269E0,-2.774850567E0,3.074675109E0
1.316965483E1,-6.610546267E-1,-1.038563733E0,-2.812142354E0,3.069813100E0
1.317958983E1,-1.131551419E0,-1.208261626E0,-3.343430893E0,3.730795479E0
1.318952483E1,-1.309336011E0,-1.474467813E0,-3.799562246E0,4.280781399E0
1.319946083E1,-1.231910105E0,-1.468207784E0,-3.680873124E0,4.149947416E0
1.320939583E1,-1.810955047E0,-1.167629324E0,-2.706851542E0,3.459763242E0
1.321933183E1,-2.078371315E0,-8.706843245E-1,9.018043756E-2,2.255183147E0
1.322926683E1,-2.175152090E0,-7.534628534E-1,9.148062444E-1,2.477067490E0
1.323920183E1,-1.999829907E0,-8.248287052E-1,9.865966040E-1,2.377611177E0
1.324913783E1,-1.322339780E0,-6.143119848E-1,1.632364270E0,2.188738179E0
1.325907283E1,-3.675938366E-1,-5.871715486E-1,1.323829504E0,1.494128580E0
1.326900883E1,6.782593279E-1,-8.950473332E-1,7.730597967E-1,1.363366016E0
1.327894383E1,6.712279049E-1,-4.984517455E-1,5.129165876E-1,9.808590463E-1
1.328887883E1,2.570697664E-1,1.523123664E-1,4.823999691E-1,5.674448448E-1
1.329881483E1,-3.054526985E-2,3.360646266E-1,6.520885062E-1,7.342287564E-1
1.330874983E1,5.205995366E-1,1.077633074E-1,1.248401592E0,1.356887373E0
1.331868483E1,8.137355138E-1,-1.283244565E-1,1.513901435E0,1.723522616E0
1.332862083E1,8.451232213E-1,-4.331535494E-1,2.078906189E0,2.285542868E0
1.333855583E1,7.925227656E-1,-5.971656096E-1,2.545908101E0,2.732461739E0
1.334849183E1,1.233128372E0,-1.098769297E0,8.353361517E-1,1.850860890E0
1.335842683E1,2.080559928E0,-1.394130578E0,-1.028408289E-1,2.506572544E0
1.336836183E1,1.861852282E0,-5.651614594E-1,1.643793823E0,2.547147331E0
1.337829783E1,1.051181294E0,5.527378803E-1,2.542081098E0,2.805829215E0
1.338823283E1,1.139583008E0,1.054422551E0,2.003216906E0,2.534429783E0
1.339816883E1,1.290689825E0,1.332386320E0,1.554462401E0,2.420224552E0
1.340810383E1,1.148194056E0,1.503283476E0,1.189081589E0,2.234306565E0
1.341803883E1,7.447274056E-1,1.216220856E0,5.137550783E-1,1.515835202E0
1.342797483E1,2.189247242E-1,5.739515787E-1,-2.412151873E-2,6.147603576E-1
1.343790983E1,-2.831903020E-1,-9.886940002E-2,-3.213354903E-1,4.395775276E-1
1.344784483E1,-1.109255109E0,-3.944303638E-1,-7.371000051E-3,1.177317518E0
1.345778083E1,-1.427203599E0,2.619763112E-1,4.945984304E-2,1.451891173E0
1.346771583E1,-7.397800764E-1,1.300484496E0,1.280680561E0,1.969435753E0
1.347765183E1,7.448253465E-1,1.836444376E0,1.375415980E0,2.412273172E0
1.348758683E1,1.501780742E0,2.231171778E0,1.115061101E0,2.911500328E0
1.349752183E1,1.721717619E0,2.137472486E0,1.017693851E0,2.927251435E0
1.350745783E1,1.685376004E0,1.523568637E0,9.284992540E-1,2.454356236E0
1.351739283E1,1.156888574E0,8.136429816E-1,8.413669699E-1,1.645692697E0
1.352732883E1,2.837127507E-1,4.533346295E-2,6.588373625E-1,7.187591516E-1
1.353726383E1,-4.951927999E-1,-3.709859526E-1,5.167663944E-1,8.061600290E-1
1.354719883E1,-8.575736976E-1,-2.717224503E-1,1.780599958E-1,9.170447638E-1
1.355713483E1,-4.790336905E-1,-4.945574999E-2,-4.292762607E-1,6.451335179E-1
1.356706983E1,3.026714703E-1,4.021527815E-1,-8.532841802E-1,9.906718784E-1
1.357700483E1,1.003970436E0,1.087616610E0,-7.890981245E-1,1.677361731E0
1.358694083E1,1.559979249E0,1.556110731E0,-3.986023521E-1,2.239173887E0
1.359687583E1,1.783654543E0,1.524814094E0,-1.403331757E-4,2.346589348E0
1.360681183E1,1.449347297E0,1.106545801E0,3.931445611E-1,1.865372307E0
1.361674683E1,9.398334968E-1,7.244893152E-1,7.009876013E-1,1.378243588E0
1.362668183E1,4.939204457E-1,5.285058492E-1,8.399770868E-1,1.108529362E0
1.363661783E1,3.491469676E-1,4.579603618E-1,5.829849422E-1,8.194527081E-1
1.364655283E1,3.760108305E-1,4.298703378E-1,3.626326203E-2,5.722653896E-1
1.365648883E1,4.822496957E-1,4.931576765E-1,-4.150312740E-1,8.049970318E-1
1.366642383E1,6.116909704E-1,6.057107306E-1,-4.947212219E-1,9.928748258E-1
1.367635883E1,7.193527555E-1,5.425333196E-1,-2.042666316E-1,9.238699294E-1
1.368629483E1,7.769239292E-1,2.521968430E-1,3.696042556E-1,8.965608429E-1
1.369622983E1,5.628392377E-1,-1.619555944E-1,9.026691788E-1,1.076024753E0
1.370616583E1,1.522612032E-1,-3.931667805E-1,9.440774059E-1,1.033946681E0
1.371610083E1,-1.457791261E-1,-3.927843726E-1,7.114669812E-1,8.256611788E-1
1.372603583E1,-1.873884974E-1,-2.364093608E-1,2.440914327E-1,3.880521387E-1
1.373597183E1,-1.041586451E-1,1.342210811E-1,-1.597482705E-1,2.332034132E-1
1.374590683E1,1.087763375E-1,5.136486590E-1,-3.553370494E-1,6.339808003E-1
1.375584183E1,-9.080608964E-2,4.416717732E-1,-3.096674885E0,3.129331405E0
1.376577783E1,-5.649639697E-1,5.543037647E-1,-2.854021867E0,2.961735601E0
1.377571283E1,-4.045235351E-2,3.930176765E-1,4.743799281E-1,6.173618089E-1
1.378564883E1,3.023033881E-1,2.960474521E-1,1.449500202E0,1.509994128E0
1.379558383E1,1.208439673E-1,1.150340277E-1,2.111123178E0,2.117705637E0
1.380551883E1,-1.721201017E-1,-7.779018760E-2,1.824331868E0,1.834083806E0
1.381545483E1,-5.397893675E-1,-2.244026881E-1,1.287079169E0,1.413613071E0
1.382538983E1,-6.589641009E-1,-4.829835212E-1,4.410683405E-1,9.284654270E-1
1.383532583E1,-6.192042039E-1,-5.798648679E-1,-5.177972585E-1,9.938667477E-1