"Time (s)","Linear Acceleration x (m/s^2)","Linear Acceleration y (m/s^2)","Linear Acceleration z (m/s^2)","Absolute acceleration (m/s^2)"
4.929124989E-3,-3.623004985E-1,9.786724573E-1,-1.187784092E0,1.581104829E0
1.486512501E-2,-6.797607467E-1,9.678972083E-1,-1.212620140E0,1.693914780E0
2.480012499E-2,-7.609937748E-1,8.500255269E-1,-1.125463298E0,1.602598689E0
3.473512499E-2,-5.257228670E-1,6.913449579E-1,-1.086453014E0,1.390943038E0
4.467112498E-2,-2.475424594E-1,6.562862223E-1,-1.131765427E0,1.331496097E0
5.460612499E-2,-3.387759805E-2,8.125401968E-1,-1.219223986E0,1.465563506E0
6.454212501E-2,1.161631250E-1,1.047956700E0,-1.344153841E0,1.708349105E0
7.447712499E-2,1.050042987E-1,1.413804120E0,-1.430054117E0,2.013683880E0
8.441212500E-2,-8.350671798E-2,1.801471594E0,-1.514083284E0,2.354723225E0
9.434812499E-2,-2.228517142E-1,2.011518783E0,-1.602851034E0,2.581666543E0
1.042831250E-1,-2.899023208E-1,1.947525393E0,-1.692471893E0,2.596412837E0
1.142191250E-1,-5.988876146E-1,1.492227853E0,-1.698174098E0,2.338633277E0
1.241541250E-1,-8.183722097E-1,9.924230620E-1,-1.242533911E0,1.788442654E0
1.340891250E-1,-7.153571337E-1,5.951524132E-1,-5.769248879E-1,1.094890200E0
1.440251250E-1,-4.378611428E-1,4.231574419E-1,-3.321306199E-1,6.936103731E-1
1.539601250E-1,1.218436950E-1,3.791781941E-1,-7.573477435E-1,8.556854524E-1
1.638951250E-1,8.482336476E-1,3.389733240E-1,-7.259283149E-1,1.166779822E0
1.738311250E-1,7.465371189E-1,3.061081713E-1,3.064011168E-1,8.630767792E-1
1.837661250E-1,3.316289288E-1,2.143298359E-1,1.999817335E0,2.038426942E0
1.937021250E-1,6.448468758E-1,3.864337116E-1,2.935301088E0,3.030041416E0
2.036371250E-1,3.366236204E-1,9.708064174E-1,3.265996801E0,3.423815951E0
2.135721250E-1,7.486774921E-1,-2.417980085E-1,2.896595444E0,3.001541176E0
2.235081250E-1,1.166177168E0,-1.763024397E0,2.512377242E0,3.283331177E0
2.334431250E-1,9.056440960E-1,-1.590614566E0,2.905169801E0,3.433694439E0
2.433791250E-1,3.223960291E-1,-1.676064021E0,2.843243110E0,3.316196795E0
2.533141250E-1,1.935795294E-1,-1.528261174E0,2.368802370E0,2.825646814E0
2.632491250E-1,1.354270694E-1,-1.063144331E0,1.805076987E0,2.099266369E0
2.731851250E-1,1.387917034E-1,-7.487877852E-1,1.553848443E0,1.730430949E0
2.831201250E-1,7.517545894E-1,-5.185446788E-1,1.492623417E0,1.749842339E0
2.930561250E-1,1.497119195E0,-3.088670339E-1,1.268238271E0,1.986251002E0
3.029911250E-1,1.423554060E0,1.503313297E-1,1.005288398E0,1.749202799E0
3.129261250E-1,7.664800711E-1,5.458393353E-1,9.058892405E-1,1.306165225E0
3.228621250E-1,-8.762520432E-2,1.053518718E0,1.309946460E0,1.683312091E0
3.327977500E-1,-2.690540734E-1,9.382969216E-1,1.247676537E0,1.584136342E0
3.427337500E-1,-6.438597927E-1,4.105040672E-1,9.066470397E-1,1.185359809E0
3.526687500E-1,-9.344890686E-1,6.580997363E-2,1.283864370E0,1.589310697E0
3.626037500E-1,-9.457992648E-1,-3.807848628E-1,1.859275998E0,2.120481219E0
3.725397500E-1,-4.730632813E-1,-9.294967890E-1,2.823009989E0,3.009508024E0
3.824747500E-1,2.625563915E-1,-1.355268667E0,3.580593376E0,3.837491100E0
3.924107500E-1,3.923752867E-1,-1.769765944E0,3.102615071E0,3.593361955E0
4.023457500E-1,1.299126334E-1,-2.132042177E0,2.614391860E0,3.376022206E0
4.122807500E-1,7.049403191E-3,-1.483791198E0,3.117720768E0,3.452805931E0
4.222167500E-1,-9.921540901E-2,-6.775250638E-1,3.986436335E0,4.044818730E0
4.321517500E-1,1.441699724E0,1.950707448E0,2.334892028E0,3.366820224E0
4.420877500E-1,2.274003948E0,3.711483883E0,8.672888464E-1,4.438287565E0
4.520227500E-1,1.163714029E0,-2.074802613E-1,1.616855700E0,2.002873125E0
4.619577500E-1,3.986631632E-1,-2.474176213E0,1.688146707E0,3.021641864E0
4.718937500E-1,-1.123856995E0,-1.863612878E0,2.633499976E0,3.416347410E0
4.818287500E-1,-1.536099512E0,-1.982836436E0,4.002512085E0,4.723488651E0
4.917647500E-1,-1.353904219E0,-2.468614342E0,5.089632266E0,5.816482615E0
5.016997500E-1,-1.160186111E0,-2.562145234E0,5.939854259E0,6.572099256E0
5.116347500E-1,-1.120344645E0,-2.521679578E0,6.304283144E0,6.881716790E0
5.215707500E-1,-1.070249064E0,-2.684270180E0,6.218882806E0,6.857495374E0
5.315057500E-1,-6.944344805E-1,-3.075096905E0,5.568145591E0,6.398648728E0
5.414417500E-1,-3.783698165E-1,-3.241244953E0,4.726758741E0,5.743786273E0
5.513767500E-1,-4.004987504E-1,-3.284308527E0,3.564578437E0,4.863465963E0
5.613117500E-1,-7.000967049E-1,-3.273543802E0,2.195037155E0,4.003050403E0
5.712477500E-1,-1.126409085E0,-3.336417158E0,1.024595320E0,3.667461309E0
5.811827500E-1,-1.546392658E0,-3.495953175E0,2.597613859E-1,3.831513387E0
5.911187500E-1,-1.652020416E0,-3.717396002E0,-1.255373812E-1,4.069885027E0
6.010537500E-1,-1.530146316E0,-3.901759297E0,-3.446132559E-1,4.205214817E0
6.109887500E-1,-1.293564901E0,-4.091235396E0,-3.805098975E-1,4.307702984E0
6.209247500E-1,-1.174369994E0,-4.435014839E0,-7.739316165E-2,4.588517321E0
6.308597500E-1,-1.210001757E0,-4.820539309E0,-2.862065881E-1,4.978314744E0
6.407957500E-1,-1.228643265E0,-5.150420505E0,-1.248580517E0,5.440160747E0
6.507307500E-1,-1.187663201E0,-5.261657351E0,-2.419354181E0,5.911755797E0
6.606657500E-1,-1.180144558E0,-5.641020609E0,-3.472453215E0,6.728431171E0
6.706017500E-1,-1.519553061E0,-6.375152568E0,-4.411944942E0,7.900434794E0
6.805367500E-1,-1.958575461E0,-6.797183543E0,-4.893999926E0,8.601683395E0
6.904727500E-1,-2.276631541E0,-6.897776118E0,-4.694134786E0,8.648541376E0
7.004077500E-1,-1.580296423E0,-7.093469562E0,-4.325793236E0,8.457371597E0
7.103427500E-1,-6.348175853E-1,-6.711048210E0,-3.903380437E0,7.789578954E0
7.202787500E-1,-1.042748147E0,-6.165916972E0,-3.442293862E0,7.138294112E0
7.302137500E-1,-1.391596395E0,-6.438829916E0,-3.376533735E0,7.402435496E0
7.401497500E-1,-1.735444250E0,-7.001322706E0,-3.504343929E0,8.019396034E0
7.500847500E-1,-2.259511186E0,-7.520433834E0,-3.394467438E0,8.554807130E0
7.600197500E-1,-2.932185107E0,-8.354822152E0,-3.086466523E0,9.376941841E0
7.699557500E-1,-3.342566675E0,-9.590271576E0,-2.754055237E0,1.052287419E1
7.798907500E-1,-3.503551339E0,-1.098147328E1,-2.361570534E0,1.176625016E1
7.898267500E-1,-3.056321788E0,-1.159150628E1,-1.971052835E0,1.214862831E1
7.997617500E-1,-1.788207770E0,-1.042080249E1,-2.201434593E0,1.079986693E1
8.096967500E-1,1.778097349E-1,-8.513802683E0,-3.223156299E0,9.105228660E0
8.196327500E-1,2.753531034E0,-6.721034085E0,-4.887243760E0,8.754392263E0
8.295677500E-1,5.922996737E0,-4.756749694E0,-6.816353055E0,1.020643067E1
8.395037500E-1,9.306355342E0,-3.164727704E0,-8.433897557E0,1.295200290E1
8.494387500E-1,1.266883939E1,-2.324328448E0,-9.240085924E0,1.585185106E1
8.593737500E-1,1.509055146E1,-1.816800070E0,-9.487293338E0,1.791742841E1
8.693097500E-1,1.610870841E1,-1.373185559E0,-1.052845323E1,1.929311931E1
8.792447500E-1,1.558753321E1,-1.258071425E0,-1.270888814E1,2.015117300E1
8.891807500E-1,1.421722068E1,-2.005720099E0,-1.455261814E1,2.044336009E1
8.991157500E-1,1.368502466E1,-2.226601009E0,-1.473362338E1,2.023159188E1
9.090507500E-1,1.302119026E1,-2.146992338E0,-1.337937900E1,1.879278464E1
9.189867500E-1,1.262246161E1,-2.879058475E0,-1.100800912E1,1.699387477E1
9.289217500E-1,1.171534095E1,-3.681832067E0,-8.920161366E0,1.517808880E1
9.388577500E-1,9.660377353E0,-4.628982185E0,-8.148029523E0,1.345885403E1
9.487927500E-1,7.375890078E0,-5.483003114E0,-8.233460852E0,1.233924451E1
9.587277500E-1,5.877348694E0,-6.199957708E0,-8.310175737E0,1.191812586E1
9.686637500E-1,5.315835312E0,-6.709974661E0,-7.570626333E0,1.142787155E1
9.785987500E-1,6.183025925E0,-6.239369695E0,-5.999237412E0,1.063721737E1
9.885347500E-1,7.741269135E0,-5.684609263E0,-4.654721044E0,1.067279056E1
9.984697500E-1,8.953612118E0,-6.015310823E0,-3.904488192E0,1.147153705E1
1.008404750E0,1.017372254E1,-6.948019488E0,-4.333056940E0,1.305967027E1
1.018340750E0,1.194112650E1,-9.144013832E0,-5.680972295E0,1.607721796E1
1.028275750E0,1.345440579E1,-1.278279227E1,-5.231920166E0,1.928195535E1
1.038211750E0,1.551191117E1,-1.648798571E1,-1.283854284E0,2.267424404E1
1.048146750E0,1.835913331E1,-1.819645442E1,4.938980509E0,2.631657763E1
1.058081750E0,2.150311685E1,-1.726684302E1,1.127433225E1,2.979326216E1
1.068017750E0,2.211752356E1,-1.613087520E1,1.625823692E1,3.183897377E1
1.077952750E0,1.975091682E1,-1.664486183E1,2.080955989E1,3.316908084E1
1.087888750E0,1.596926869E1,-1.544137621E1,2.372307776E1,3.249981631E1
1.097823750E0,1.089665123E1,-1.343431944E1,2.360864307E1,2.926749007E1
1.107758750E0,6.132182046E0,-1.234584153E1,2.042610884E1,2.464243053E1
1.117694750E0,3.321927758E0,-1.154808017E1,1.553920481E1,1.964332573E1
1.127629750E0,1.879332533E0,-1.042791270E1,1.047900216E1,1.490244075E1
1.137565750E0,7.064863229E-1,-9.407509249E0,6.170493003E0,1.127276972E1
1.147500750E0,-2.538913661E-1,-8.868483675E0,3.957257559E0,9.714646206E0
1.157435750E0,-5.873001873E-1,-7.929001011E0,3.315754852E0,8.614418656E0
1.167371750E0,-1.858572578E-1,-6.384568339E0,2.919377950E0,7.022821613E0
1.177306750E0,5.451914638E-1,-4.777716640E0,2.669202490E0,5.499859267E0
1.187242750E0,9.000431943E-1,-3.624462696E0,2.987192788E0,4.782272299E0
1.197177750E0,1.101626539E0,-3.097408710E0,3.668230859E0,4.925793275E0
1.207112750E0,1.744703316E0,-2.877810679E0,4.207031901E0,5.387476346E0
1.217048750E0,2.735183056E0,-2.676593955E0,4.202288640E0,5.683714574E0
1.226983750E0,3.807996270E0,-2.420181270E0,3.696672301E0,5.832966575E0
1.236919750E0,4.035299762E0,-2.583219184E0,2.728302053E0,5.513646489E0
1.246854750E0,4.172392411E0,-2.844776250E0,2.090390121E0,5.465468067E0
1.256789750E0,4.064722951E0,-2.758902286E0,2.119865058E0,5.350452538E0
1.266725750E0,3.722514655E0,-2.855749719E0,2.475381324E0,5.304708712E0
1.276660750E0,3.295758544E0,-3.237818484E0,3.031590989E0,5.525942168E0
1.286596750E0,2.348302325E0,-3.409974546E0,3.583787125E0,5.475945614E0
1.296531750E0,1.053850401E0,-3.669137177E0,3.344726344E0,5.075466738E0
1.306466750E0,5.117450979E-1,-4.049826584E0,2.975969935E0,5.051670562E0
1.316402750E0,1.183404527E0,-3.974422061E0,2.713594551E0,4.955811980E0
1.326336750E0,2.085447762E0,-3.688283885E0,2.960034226E0,5.168591007E0
1.336272750E0,2.660453886E0,-3.515672325E0,3.876076864E0,5.870429169E0
1.346207750E0,2.466771884E0,-3.681985849E0,4.485239498E0,6.305502095E0
1.356142750E0,2.103617692E0,-3.884970186E0,4.267934160E0,6.142756933E0
1.366078750E0,1.833921302E0,-4.330943756E0,3.486500566E0,5.854573200E0
1.376013750E0,1.475052827E0,-4.803390595E0,2.672629543E0,5.691334705E0
1.385949750E0,1.124914391E0,-4.954359856E0,1.741213990E0,5.370562366E0
1.395884750E0,6.797309259E-1,-4.947842549E0,1.338038823E-1,4.996106834E0
1.405819750E0,4.413443291E-1,-5.153531224E0,-1.158356225E0,5.300514884E0
1.415755750E0,4.019397967E-1,-5.437746835E0,-1.383725165E0,5.625419235E0
1.425690750E0,7.845027977E-1,-5.896010667E0,-2.709655282E-1,5.954142150E0
1.435626750E0,8.950610742E-1,-6.599406736E0,1.532487980E0,6.833873207E0
1.445561750E0,1.034370841E0,-6.876329700E0,1.017766064E0,7.027779233E0
1.455496750E0,2.543123657E0,-6.107181106E0,-1.410672936E0,6.764254366E0
1.465432750E0,3.441825792E0,-4.974611102E0,-3.883162520E0,7.188314932E0
1.475367750E0,2.924844805E0,-4.717290344E0,-5.848265812E0,8.062862912E0
1.485303750E0,2.187910860E0,-5.517656638E0,-6.850017815E0,9.063897217E0
1.495238750E0,1.335972125E0,-6.887971507E0,-6.629298288E0,9.652801085E0
1.505173750E0,9.601937941E-1,-8.165853006E0,-6.167814978E0,1.027837872E1
1.515109750E0,1.393226306E0,-8.734754344E0,-6.418264089E0,1.092845492E1
1.525044750E0,2.303748588E0,-9.107419032E0,-7.398417646E0,1.195779757E1
1.534980750E0,3.393292440E0,-9.619332238E0,-8.034580091E0,1.298462412E1
1.544915750E0,4.956642609E0,-9.496548311E0,-7.834724014E0,1.327161016E1
1.554850750E0,6.486941391E0,-8.920627390E0,-7.090976894E0,1.311258765E1
1.564786750E0,8.301418362E0,-7.708573260E0,-6.895688077E0,1.326220806E1
1.574721750E0,1.039821820E1,-6.320039052E0,-7.560549241E0,1.432577189E1
1.584657750E0,1.141820767E1,-5.073051901E0,-8.424081252E0,1.506905660E1
1.594592750E0,1.113418385E1,-4.042744437E0,-9.780969159E0,1.536167928E1
1.604527750E0,1.034697671E1,-3.786123298E0,-1.173098810E1,1.609381056E1
1.614463750E0,1.042388046E1,-4.257012146E0,-1.259517967E1,1.689431819E1
1.624398750E0,1.117542894E1,-4.034434082E0,-1.115700904E1,1.629864169E1
1.634334750E0,1.116515538E1,-4.150202812E0,-1.031577246E1,1.575753913E1
1.644269750E0,1.081059893E1,-5.217599165E0,-1.069376572E1,1.607634957E1
1.654204750E0,1.134933331E1,-5.915709937E0,-9.410030569E0,1.588558044E1
1.664140750E0,1.194804493E1,-5.849106057E0,-7.658798836E0,1.535008205E1
1.674075750E0,1.184531987E1,-5.762245084E0,-7.776783954E0,1.529684412E1
1.684011750E0,1.137620478E1,-5.819376474E0,-8.522231444E0,1.535941426E1
1.693946750E0,1.023567496E1,-6.692262275E0,-9.441304986E0,1.544971379E1
1.703881750E0,9.130612013E0,-8.135523498E0,-9.864906524E0,1.571213541E1
1.713817750E0,7.986591992E0,-9.528686947E0,-9.035636274E0,1.536958846E1
1.723752750E0,7.711274673E0,-1.066606278E1,-7.448742292E0,1.512324086E1
1.733688750E0,8.387653683E0,-1.136218082E1,-5.399227717E0,1.511964111E1
1.743623750E0,9.525627683E0,-1.192704290E1,-3.333222824E0,1.562377386E1
1.753558750E0,1.098323447E1,-1.304707355E1,-1.892073616E0,1.715918151E1
1.763494750E0,1.256885902E1,-1.464476792E1,-4.085630840E-1,1.930316990E1
1.773429750E0,1.366931904E1,-1.647782091E1,1.439205594E0,2.145786983E1
1.783365750E0,1.524670603E1,-1.707504616E1,2.534209576E0,2.303131487E1
1.793300750E0,1.796595133E1,-1.684660948E1,3.490219980E0,2.487499334E1
1.803235750E0,2.135981329E1,-1.592371888E1,5.452601686E0,2.719443531E1
1.813171750E0,2.455558795E1,-1.517038116E1,8.110491568E0,2.998161833E1
1.823106750E0,2.523301362E1,-1.572298396E1,1.096242773E1,3.168741111E1
1.833042750E0,2.101082807E1,-1.771148752E1,1.414966546E1,3.090897474E1
1.842977750E0,1.212588799E1,-2.190686475E1,1.787520722E1,3.076476745E1
1.852912750E0,1.363727396E0,-2.356886330E1,2.153196000E1,3.195272087E1
1.862848750E0,-9.170283617E0,-2.002990853E1,2.214530953E1,3.123629414E1
1.872783750E0,-1.292990353E1,-1.552148307E1,1.799036463E1,2.705091609E1
1.882719750E0,-9.555463101E0,-1.253288929E1,1.091989158E1,1.917352917E1
1.892654750E0,-4.256974724E0,-8.071343290E0,5.358928707E0,1.058236898E1
1.902589750E0,7.882941324E-1,-3.237541911E0,2.300170677E0,4.048934478E0
1.912525750E0,4.001660730E0,-8.772472394E-1,8.169054356E-1,4.177341955E0
1.922460750E0,4.607504193E0,-3.348261863E-1,5.286049595E-1,4.649798562E0
1.932396750E0,3.738684545E0,-3.859513164E-1,7.959510612E-1,3.841908203E0
1.942331750E0,2.660763204E0,-9.495954233E-1,1.058694600E0,3.016989650E0
1.952266750E0,1.275958350E0,-1.809563556E0,1.502223376E0,2.675680296E0
1.962202750E0,3.170600063E-1,-2.265671520E0,2.184051991E0,3.162890700E0
1.972137750E0,2.600490689E-1,-2.088746468E0,2.421034963E0,3.208098755E0
1.982073750E0,1.004238823E0,-1.604466619E0,1.975017539E0,2.735599208E0
1.992008750E0,2.250834795E0,-9.289518285E-1,1.256677741E0,2.740154688E0
2.001943750E0,3.648029314E0,-3.873856384E-1,6.840412009E-1,3.731768732E0
2.011879750E0,4.564078091E0,-2.503228104E-1,2.547351193E-1,4.578030178E0
2.021814750E0,4.760771409E0,-7.200717437E-1,4.149511671E-1,4.832766516E0
2.031750750E0,4.394353302E0,-1.263769829E0,1.281460580E0,4.748641525E0
2.041685750E0,3.801983578E0,-1.508206247E0,2.281029816E0,4.683253382E0
2.051620750E0,3.520458856E0,-1.537248198E0,2.681386333E0,4.684719335E0
2.061556750E0,3.271724734E0,-1.766910456E0,2.202060245E0,4.321484076E0
2.071491750E0,3.315878521E0,-2.005572749E0,1.598049300E0,4.191793648E0
2.081427750E0,3.648707883E0,-1.950932858E0,1.489654494E0,4.397530983E0
2.091362750E0,4.091545299E0,-1.724561997E0,1.803111738E0,4.792292661E0
2.101297750E0,3.837582012E0,-1.704765664E0,1.837850339E0,4.583770886E0
2.111233750E0,2.726529469E0,-1.881524654E0,1.459055429E0,3.619798436E0
2.121168750E0,1.600057527E0,-2.496677468E0,2.484809375E-1,2.975789852E0
2.131104750E0,1.807532233E-1,-3.377537702E0,-7.267235363E-1,3.459560631E0
2.141039750E0,-6.853673494E-1,-3.958718194E0,-3.604498547E-1,4.033745436E0
2.150974750E0,-1.150764785E0,-4.208683155E0,3.889988852E-1,4.380478697E0
2.160910750E0,-8.968225479E-1,-4.387246596E0,1.067382320E0,4.603425723E0
2.170845750E0,-3.131031954E-1,-4.376113497E0,1.520934466E0,4.643451798E0
2.180781750E0,3.933093794E-1,-4.452352418E0,1.641405527E0,4.761548743E0
2.190716750E0,6.202276129E-1,-4.369725414E0,1.095883988E0,4.547542655E0
2.200651750E0,8.039114606E-1,-4.071300484E0,-2.716557920E-1,4.158792870E0
2.210587750E0,7.840301965E-1,-3.940747361E0,-1.530505773E0,4.299609405E0
2.220522750E0,2.783876914E-1,-4.144861965E0,-2.710864486E0,4.960460329E0
2.230458750E0,3.599838316E-3,-4.585987608E0,-3.622323492E0,5.844015981E0
2.240393750E0,3.400249457E-1,-4.867891231E0,-3.642331202E0,6.089216582E0
2.250328750E0,5.897786028E-1,-4.751304767E0,-2.865537081E0,5.579788397E0
2.260264750E0,8.151030314E-1,-5.071714059E0,-1.510650676E0,5.354319929E0
2.270199750E0,4.600793928E-1,-5.370881585E0,-1.190762079E-1,5.391866207E0
2.280135750E0,5.400016214E-1,-5.706014750E0,-8.755404371E-1,5.797997683E0
2.290070750E0,9.589192472E-1,-5.569285213E0,-2.490390250E0,6.175638227E0
2.300005750E0,1.131797294E0,-5.046269900E0,-3.869736435E0,6.459153590E0
2.309941750E0,1.259282383E0,-4.951187741E0,-4.497953976E0,6.806735057E0
2.319876750E0,6.880529755E-1,-5.519912494E0,-4.543796439E0,7.182543903E0
2.329813417E0,-1.789768392E-1,-6.763585442E0,-4.176331095E0,7.951091885E0
2.339748417E0,-6.734942856E-1,-7.879336515E0,-3.516892931E0,8.654829540E0
2.349683417E0,-9.333106354E-1,-8.430790932E0,-2.937682367E0,8.976596357E0
2.359619417E0,-5.877211869E-1,-8.937507132E0,-2.212908584E0,9.226126724E0
2.369554417E0,-3.476637483E-1,-9.474596694E0,-1.724263204E0,9.636489827E0
2.379490417E0,-1.332492739E-1,-1.029007746E1,-1.720152904E0,1.043371340E1
2.389425417E0,1.353997629E0,-9.974528954E0,-2.605661382E0,1.039778864E1
2.399360417E0,4.159879369E0,-8.198648869E0,-3.850612824E0,9.967429898E0
2.409296417E0,7.969380128E0,-6.244939168E0,-5.154522911E0,1.136131116E1
2.419231417E0,1.190390898E1,-3.952984122E0,-6.390356498E0,1.407713709E1
2.429167417E0,1.448289477E1,-1.842081676E0,-7.765450881E0,1.653631559E1
2.439102417E0,1.537478695E1,-1.207635243E0,-9.780560439E0,1.826203217E1
2.449037417E0,1.570472077E1,-1.154013498E0,-1.171125374E1,1.962456282E1
2.458973417E0,1.529106067E1,-1.396138804E0,-1.345610266E1,2.041647469E1
2.468908417E0,1.431717065E1,-2.460393741E0,-1.517861871E1,2.101012563E1
2.478844417E0,1.302452552E1,-4.187170371E0,-1.630936380E1,2.128769617E1
2.488779417E0,1.219048101E1,-5.807886111E0,-1.560093269E1,2.063318854E1
2.498714417E0,1.229006377E1,-6.963367844E0,-1.351716630E1,1.955116222E1
2.508650417E0,1.255352060E1,-7.603651991E0,-1.102708274E1,1.835764028E1
2.518585417E0,1.188915528E1,-9.313074378E0,-8.405388873E0,1.728397899E1
2.528521417E0,9.991993418E0,-1.050200394E1,-6.298374533E0,1.580511123E1
2.538456417E0,7.696571265E0,-1.125491014E1,-5.026541394E0,1.453190730E1
2.548391417E0,5.404402503E0,-1.176932127E1,-4.323734139E0,1.365354044E1
2.558327417E0,3.943398489E0,-1.191909770E1,-4.164698060E0,1.322724429E1
2.568262417E0,3.866702315E0,-1.205283054E1,-3.822168167E0,1.322237045E1
2.578198417E0,3.839442011E0,-1.228166133E1,-3.220710993E0,1.326474648E1
2.588133417E0,4.633112658E0,-1.255821825E1,-2.793242984E0,1.367394548E1
2.598068417E0,6.999871427E0,-1.257036409E1,-1.892159862E0,1.451180631E1
2.608004417E0,1.026344456E1,-1.256992087E1,-6.779092258E-1,1.624194464E1
2.617939417E0,1.311174726E1,-1.324895686E1,2.277613288E-1,1.864147658E1
2.627875417E0,1.531509974E1,-1.534977724E1,1.682527533E0,2.174853651E1
2.637810417E0,1.573844751E1,-1.899390705E1,5.692657955E0,2.531548122E1
2.647745417E0,1.336259983E1,-2.093538028E1,1.190054332E1,2.754037314E1
2.657681417E0,1.078431336E1,-1.927649830E1,1.762068611E1,2.825550177E1
2.667616417E0,8.517223304E0,-1.548504556E1,2.055361323E1,2.710683946E1
2.677552417E0,6.082809911E0,-1.219723455E1,2.026535485E1,2.442248379E1
2.687487417E0,4.550726559E0,-1.071152020E1,1.737456862E1,2.091223115E1
2.697422417E0,3.742236729E0,-9.833905756E0,1.357095250E1,1.717209334E1
2.707358417E0,3.187583300E0,-8.691303685E0,9.408786866E0,1.319942110E1
2.717293417E0,3.461463373E0,-7.262519583E0,6.050394702E0,1.006643906E1
2.727229417E0,4.185495436E0,-5.499500449E0,4.723347767E0,8.370955224E0
2.737164417E0,5.084565069E0,-3.429329415E0,4.490524504E0,7.601178362E0
2.747099417E0,5.488760283E0,-1.945331810E0,4.230749377E0,7.197919532E0
2.757035417E0,5.214813552E0,-1.186697679E0,4.252804782E0,6.832926187E0
2.766970417E0,4.802722258E0,-8.040962327E-1,4.566877738E0,6.676008097E0
2.776906417E0,4.627449045E0,-7.736024183E-1,4.854525665E0,6.751160256E0
2.786841417E0,4.162432848E0,-1.332592726E0,4.696515187E0,6.415520672E0
2.796776417E0,3.320121553E0,-2.509792773E0,4.106262156E0,5.846679039E0
2.806712417E0,2.307132372E0,-3.936315756E0,3.255889889E0,5.605199415E0
2.816647417E0,1.501129362E0,-4.671095586E0,1.869936057E0,5.250636552E0
2.826583417E0,1.356728278E0,-4.230123140E0,3.507534170E-1,4.456195840E0
2.836518417E0,1.448069388E0,-3.485438127E0,-6.686010432E-1,3.833042035E0
2.846453417E0,1.785061383E0,-3.104301408E0,-6.645325506E-1,3.642078374E0
2.856389417E0,2.736756542E0,-2.589626563E0,1.604136837E-1,3.771171523E0
2.866324417E0,3.728472968E0,-1.950360416E0,1.195101224E0,4.374206598E0
2.876260417E0,4.351731777E0,-1.671974478E0,1.702520918E0,4.963027865E0
2.886195417E0,4.944627750E0,-1.774194918E0,2.089106657E0,5.653448312E0
2.896130417E0,5.344247518E0,-2.080786654E0,2.476751327E0,6.246995419E0
2.906066417E0,4.995361701E0,-2.760275213E0,2.933901265E0,6.417206122E0
2.916001417E0,3.799310816E0,-3.644961280E0,2.854455730E0,5.989025206E0
2.925937417E0,2.556974541E0,-4.354944822E0,1.807573017E0,5.363859005E0
2.935872417E0,1.770100405E0,-4.666478040E0,1.592386857E-1,4.993458691E0
2.945807417E0,1.320835145E0,-4.720486432E0,-2.086031606E0,5.327206163E0
2.955743417E0,1.109336677E-1,-4.647351798E0,-3.620725448E0,5.892354180E0
2.965678417E0,-6.592832127E-1,-4.492415786E0,-3.602494122E0,5.796069172E0
2.975614417E0,-9.066477706E-1,-4.217696638E0,-2.365504541E0,4.920018988E0
2.985549417E0,-8.051984328E-1,-3.905043093E0,-9.542234945E-1,4.099786403E0
2.995484417E0,-6.025679983E-1,-3.925343456E0,3.721746916E-1,3.988724538E0
3.005420417E0,-6.176231168E-1,-4.385869576E0,1.238306374E0,4.598990425E0
3.015355417E0,-3.941619766E-1,-4.892156006E0,1.070881294E0,5.023478954E0
3.025291417E0,1.443263123E-1,-5.170613864E0,4.204630449E-1,5.189688525E0
3.035226417E0,-8.376333766E-2,-5.392020439E0,-4.134738681E-1,5.408498992E0
3.045161417E0,-8.288527590E-1,-5.912342525E0,-1.594239547E0,6.179351970E0
3.055097417E0,-1.239273357E0,-6.218018587E0,-2.902689412E0,6.973174272E0
3.065032417E0,-1.010875267E0,-6.136490275E0,-3.749658599E0,7.262115484E0
3.074968417E0,-1.658855081E-2,-5.868325270E0,-3.277612588E0,6.721626361E0
3.084903417E0,6.680281623E-1,-4.990486878E0,-2.210249856E0,5.498765800E0
3.094838417E0,1.033192188E0,-4.351334167E0,-2.584581000E0,5.165428741E0
3.104774417E0,1.071945195E0,-4.454746853E0,-4.154192367E0,6.184751430E0
3.114709417E0,5.350406975E-1,-5.329961016E0,-5.321087866E0,7.550412509E0
3.124645417E0,-5.668325937E-1,-7.256047300E0,-5.433934450E0,9.082905109E0
3.134580417E0,-1.163337468E0,-9.066346436E0,-4.988126357E0,1.041313576E1
3.144515417E0,-1.487370864E0,-9.859359856E0,-4.587144188E0,1.097547906E1
3.154451417E0,-1.563475884E0,-1.005793013E1,-4.326375619E0,1.106001543E1
3.164386417E0,-7.472998881E-1,-9.889007578E0,-4.349409555E0,1.082904850E1
3.174322417E0,7.245986581E-2,-9.552760518E0,-4.291782614E0,1.047281633E1
3.184257417E0,8.229459018E-1,-9.720045850E0,-4.166984906E0,1.060755837E1
3.194192417E0,1.327160078E0,-1.000652141E1,-4.154737620E0,1.091575326E1
3.204128417E0,2.924317678E0,-9.955036676E0,-4.416944896E0,1.127669239E1
3.214063417E0,5.587277681E0,-9.097698036E0,-4.402608401E0,1.154853853E1
3.223999417E0,8.590502949E0,-7.197903757E0,-4.795286646E0,1.219021466E1
3.233934417E0,1.097619325E1,-5.645505424E0,-6.156163816E0,1.379300194E1
3.243869417E0,1.339809477E1,-4.594710485E0,-8.397137282E0,1.646609311E1
3.253805417E0,1.594066294E1,-3.174529976E0,-1.070465440E1,1.946206570E1
3.263740417E0,1.739164483E1,-2.144320745E0,-1.328694505E1,2.199114208E1
3.273676417E0,1.918304927E1,-1.724379856E0,-1.517452332E1,2.451997192E1
3.283611417E0,1.912181372E1,-1.932567338E0,-1.600699142E1,2.501204411E1
3.293546417E0,1.757945271E1,-3.769796703E0,-1.550154640E1,2.373913363E1
3.303482417E0,1.663922512E1,-5.707398786E0,-1.260637475E1,2.164160109E1
3.313417417E0,1.578525330E1,-7.050874350E0,-8.424498743E0,1.923177657E1
3.323353417E0,1.379113759E1,-8.672840517E0,-5.517529753E0,1.720048759E1
3.333288375E0,1.144823312E1,-1.037077137E1,-4.064955670E0,1.597306498E1
3.343223375E0,8.296490913E0,-1.154672713E1,-2.916358448E0,1.451426248E1
3.353159375E0,5.111465185E0,-1.193799356E1,-2.283563415E0,1.318550069E1
3.363094375E0,3.236090047E0,-1.230232889E1,-2.265426521E0,1.292098032E1
3.373030375E0,2.959631937E0,-1.175456992E1,-2.625688680E0,1.240256329E1
3.382965375E0,4.335409859E0,-1.057462285E1,-2.751305876E0,1.175534394E1
3.392900375E0,7.138067445E0,-1.051783001E1,-2.479130851E0,1.295078549E1
3.402836375E0,1.057657699E1,-1.153325631E1,-2.018891245E0,1.577833654E1
3.412771375E0,1.299463455E1,-1.275323927E1,-1.060471204E0,1.823815336E1
3.422707375E0,1.460756560E1,-1.457440370E1,8.071894097E-1,2.065056345E1
3.432642375E0,1.577461137E1,-1.681972515E1,3.950288263E0,2.339543322E1
3.442577375E0,1.520660583E1,-1.895785194E1,8.416310302E0,2.571916193E1
3.452513375E0,1.347278242E1,-1.989888646E1,1.420066722E1,2.791308829E1
3.462448375E0,1.029694676E1,-1.855446891E1,1.958901443E1,2.887948953E1
3.472384375E0,6.646050560E0,-1.475092997E1,2.190599469E1,2.723293092E1
3.482319375E0,3.879943335E0,-1.102267744E1,2.000815221E1,2.317066104E1
3.492254375E0,2.038791951E0,-9.739610049E0,1.548859131E1,1.840959362E1
3.502190375E0,9.093887991E-1,-9.000251849E0,1.098750293E1,1.423224304E1
3.512125375E0,-2.984693688E-1,-8.000241147E0,7.755580781E0,1.114638846E1
3.522061375E0,-9.909714907E-1,-7.267808390E0,5.860228046E0,9.388574761E0
3.531996375E0,-5.898291081E-1,-6.300036312E0,5.374766475E0,8.302196731E0
3.541931375E0,2.399089193E-1,-4.816123492E0,5.766533432E0,7.517014673E0
3.551867375E0,8.008714932E-1,-3.404731933E0,6.196500249E0,7.115490849E0
3.561802375E0,1.065436952E0,-2.188361973E0,5.936533041E0,6.416113198E0
3.571738375E0,1.142327253E0,-1.406706185E0,5.004136033E0,5.322134091E0
3.581673375E0,1.338361589E0,-1.036848745E0,3.838136620E0,4.194944550E0
3.591608375E0,1.725193496E0,-7.157360333E-1,2.620063951E0,3.217655323E0
3.601544375E0,2.056349385E0,-6.497332478E-1,1.419740506E0,2.581935164E0
3.611479375E0,2.321999502E0,-7.792163301E-1,3.756811206E-1,2.477901548E0
3.621415375E0,2.377669088E0,-8.901169610E-1,-5.855672188E-1,2.605476437E0
3.631350375E0,2.690148386E0,-8.995397490E-1,-1.146276316E0,3.059414893E0
3.641285375E0,3.043916042E0,-8.684378242E-1,-1.052462565E0,3.335758771E0
3.651221375E0,3.540181514E0,-8.431176263E-1,-6.395684481E-1,3.694966885E0
3.661156375E0,4.049772790E0,-5.956336391E-1,1.744996262E-1,4.097058604E0
3.671092375E0,5.032397380E0,-2.080918801E-1,1.499019102E0,5.255034148E0
3.681027375E0,6.215289107E0,2.551526105E-1,2.867721308E0,6.849726056E0
3.690962375E0,6.850413086E0,3.020882106E-1,3.592312365E0,7.741067424E0
3.700898375E0,7.345022627E0,-1.314009690E-1,3.605132385E0,8.183129176E0
3.710833375E0,7.712686191E0,-6.962560344E-1,3.478686347E0,8.489497008E0
3.720769375E0,7.504238216E0,-1.542542267E0,3.283262460E0,8.335036906E0
3.730704375E0,7.034431980E0,-2.467788130E0,2.681613497E0,7.922389948E0
3.740639375E0,6.094870963E0,-3.144949497E0,2.253085680E0,7.219041105E0
3.750575375E0,4.416349942E0,-3.948227119E0,1.477114263E0,6.105285476E0
3.760510375E0,2.216027197E0,-4.648748113E0,7.347447467E-1,5.202065493E0
3.770446375E0,7.216300267E-1,-5.185064088E0,1.620625985E-1,5.237547497E0
3.780381375E0,-2.778646579E-1,-5.428436898E0,-1.375955093E-1,5.437285025E0
3.790316375E0,-1.499969274E0,-5.417072834E0,-7.043564746E-1,5.664865750E0
3.800252375E0,-2.157376993E0,-5.312134025E0,-1.205430404E0,5.858848508E0
3.810187375E0,-1.858789802E0,-5.073633699E0,-6.192207223E-1,5.438776770E0
3.820123375E0,-1.684511640E0,-4.885148703E0,2.171471706E-1,5.171983199E0
3.830058375E0,-1.230274054E0,-4.987836335E0,2.971806425E-1,5.145911181E0
3.839993375E0,-8.779223004E-1,-5.152550061E0,-8.590787709E-2,5.227513736E0
3.849929375E0,-7.859878443E-2,-5.546546561E0,-5.797628340E-1,5.577318484E0
3.859864375E0,2.329278555E-1,-6.036652576E0,-6.596954414E-1,6.077057494E0
3.869800375E0,-5.485506892E-2,-6.578169065E0,-9.772895908E-1,6.650594880E0
3.879735375E0,-4.416306965E-1,-7.043030310E0,-1.583829749E0,7.232415246E0
3.889670375E0,-9.008075716E-1,-7.548530290E0,-2.312769380E0,7.946110119E0
3.899606375E0,-8.642971185E-1,-7.950197167E0,-2.790580747E0,8.469946010E0
3.909541375E0,-4.960874239E-1,-8.202180587E0,-3.262556007E0,8.841161734E0
3.919477375E0,1.446859892E-1,-7.975875215E0,-4.014951159E0,8.930585215E0
3.929412375E0,5.322372499E-1,-7.204253249E0,-4.809685415E0,8.678572184E0
3.939347375E0,8.202474117E-1,-6.463335012E0,-6.104748664E0,8.928351558E0
3.949283375E0,6.989790827E-1,-6.514908038E0,-7.535843001E0,9.986066705E0
3.959218375E0,-2.688918132E-1,-7.338412349E0,-8.083541751E0,1.092100022E1
3.969154375E0,-1.782749394E0,-8.902840744E0,-7.444474994E0,1.174133624E1
3.979089375E0,-2.685466520E0,-1.094179876E1,-6.287518008E0,1.290223132E1
3.989024375E0,-3.415955663E0,-1.276671242E1,-4.689337437E0,1.402310896E1
3.998960375E0,-3.522111863E0,-1.387101055E1,-3.147067066E0,1.465313062E1
4.008895375E0,-1.745013803E0,-1.403392568E1,-2.107143563E0,1.429811865E1
4.018831375E0,1.189373950E0,-1.272598189E1,-1.175207316E0,1.283535499E1
4.028766375E0,5.137011085E0,-9.992893889E0,-1.219687378E0,1.130196658E1
4.038701375E0,9.426149588E0,-6.497469887E0,-3.264150543E0,1.190479272E1
4.048637375E0,1.320100618E1,-3.889846179E0,-6.914574584E0,1.540158463E1
4.058572375E0,1.564128433E1,-2.519167906E0,-1.154603716E1,1.960374853E1
4.068508375E0,1.612055604E1,-2.335597495E0,-1.513740052E1,2.223664177E1
4.078443375E0,1.630276463E1,-2.373411438E0,-1.676199559E1,2.350271714E1
4.088378375E0,1.653776774E1,-2.902713971E0,-1.683729136E1,2.377851742E1
4.098314375E0,1.702727675E1,-3.560179576E0,-1.442651124E1,2.259927563E1
4.108249375E0,1.577819104E1,-4.117294975E0,-1.055136964E1,1.942253412E1
4.118185375E0,1.303938212E1,-5.918432985E0,-7.893965079E0,1.635139198E1
4.128120375E0,1.070065607E1,-7.968392533E0,-6.431284668E0,1.481083193E1
4.138055375E0,8.936021354E0,-8.963583959E0,-5.446557419E0,1.377908933E1
4.147991375E0,7.365386140E0,-1.007601674E1,-5.319292771E0,1.356723634E1
4.157926375E0,6.943684947E0,-1.036968964E1,-5.367059260E0,1.358493831E1
4.167862375E0,7.676856793E0,-9.571393840E0,-5.030573634E0,1.326093441E1
4.177797375E0,8.538879052E0,-8.276473555E0,-5.189214442E0,1.297460660E1
4.187732375E0,9.667367114E0,-7.151959845E0,-4.970208149E0,1.301197470E1
4.197668375E0,9.733775112E0,-7.533031660E0,-4.465817971E0,1.309337520E1
4.207603375E0,7.871252155E0,-9.727630273E0,-3.733686930E0,1.305847691E1
4.217539375E0,5.616156494E0,-1.214223096E1,-2.426719041E0,1.359646836E1
4.227474375E0,4.749931841E0,-1.379899742E1,-1.183232912E0,1.464152391E1
4.237409375E0,6.158248349E0,-1.407663842E1,-1.675060639E-1,1.536567051E1
4.247345375E0,8.643691562E0,-1.332144830E1,7.430618262E-1,1.589737492E1
4.257280375E0,1.149328592E1,-1.280100166E1,1.811081493E0,1.729859188E1
4.267216375E0,1.490788678E1,-1.338959292E1,4.016591011E0,2.043671427E1
4.277151375E0,1.654161287E1,-1.476316001E1,8.459331191E0,2.373048954E1
4.287086375E0,1.547157123E1,-1.609153748E1,1.404948044E1,2.637603070E1
4.297022375E0,1.331970466E1,-1.664357194E1,1.876717190E1,2.840122815E1
4.306957375E0,9.794578553E0,-1.580173076E1,2.150324783E1,2.842565973E1
4.316893375E0,5.106619012E0,-1.397000275E1,2.098299532E1,2.572012106E1
4.326828375E0,1.108141506E0,-1.206897353E1,1.715479751E1,2.100417047E1
4.336762875E0,-1.853777862E0,-9.805995827E0,1.265892953E1,1.611963223E1
4.346698875E0,-2.735644986E0,-8.176086802E0,1.086100895E1,1.386699911E1
4.356633875E0,-9.964269429E-1,-6.744226481E0,1.013657869E1,1.221587840E1
4.366569875E0,1.277868635E0,-4.313753527E0,8.774988450E0,9.861127727E0
4.376504875E0,3.392736955E0,-1.989629731E0,7.137805490E0,8.149696787E0
4.386439875E0,4.461482846E0,-5.119167137E-1,5.240716717E0,6.901593991E0
4.396375875E0,4.440991863E0,1.265530425E-1,3.139477673E0,5.440105188E0
4.406310875E0,3.753822402E0,1.500097328E-1,1.553932058E0,4.065512315E0
4.416246875E0,2.751094499E0,-2.905118930E-1,8.142873448E-1,2.883744438E0
4.426181875E0,1.782028432E0,-7.115921116E-1,5.989946187E-1,2.010169948E0
4.436116875E0,1.199628797E0,-9.881162953E-1,6.659747663E-1,1.690859383E0
4.446052875E0,1.144628717E0,-1.218985419E0,1.018883175E0,1.958117278E0
4.455987875E0,1.578014401E0,-1.131166672E0,1.566940359E0,2.494988893E0
4.465923875E0,2.428373219E0,-8.453652960E-1,1.725276088E0,3.096484548E0
4.475858875E0,3.170215901E0,-6.640536636E-1,1.443940377E0,3.546293831E0
4.485793875E0,4.152932292E0,-4.154265457E-1,7.995929995E-1,4.249561719E0
4.495729875E0,4.692953648E0,-2.289237553E-1,1.856780407E-1,4.702201225E0
4.505664875E0,5.396534489E0,-4.000261492E-1,8.416847661E-2,5.411994988E0
4.515600875E0,6.078348486E0,-2.365163648E-1,1.164340704E0,6.193379496E0
4.525535875E0,6.218390470E0,-4.726339495E-1,2.352344213E0,6.665229642E0
4.535470875E0,6.068711105E0,-1.251442729E0,2.916273079E0,6.848358347E0
4.545406875E0,5.443378873E0,-2.051783879E0,3.116510394E0,6.599456620E0
4.555341875E0,4.538044533E0,-2.751961057E0,3.237797434E0,6.216950222E0
4.565277875E0,3.413648937E0,-3.538524413E0,3.567124314E0,6.074416018E0
4.575212875E0,2.710171006E0,-4.153810544E0,3.675043450E0,6.172933928E0
4.585147875E0,2.646686032E0,-4.308903846E0,3.587535190E0,6.200161937E0
4.595083875E0,2.496787396E0,-4.415396261E0,2.747615991E0,5.768801009E0
4.605018875E0,1.994015143E0,-4.642437798E0,1.369019710E0,5.234743553E0
4.614954875E0,1.779526994E0,-4.953607319E0,8.034077230E-1,5.324509908E0
4.624889875E0,1.436544526E0,-5.107375642E0,9.294628751E-1,5.386357523E0
4.634824875E0,6.213637269E-1,-5.237590796E0,5.966180179E-1,5.307956602E0
4.644760875E0,2.096785221E-1,-5.237749840E0,3.699284837E-1,5.254981974E0
4.654695875E0,1.774024764E-1,-5.384134884E0,2.191118351E-1,5.391510928E0
4.664631875E0,4.203490242E-1,-5.554579466E0,-2.012485912E-1,5.574096101E0
4.674566875E0,8.853672677E-1,-5.598275709E0,-5.420757750E-1,5.693716910E0
4.684501875E0,9.738382718E-1,-5.685030847E0,-1.665718542E0,6.003545201E0
4.694437875E0,1.215525622E0,-5.927191529E0,-2.717951311E0,6.632975297E0
4.704372875E0,1.384432971E0,-5.746935904E0,-2.863147616E0,6.568222074E0
4.714308875E0,7.742575988E-1,-5.637178988E0,-2.949193780E0,6.408978525E0
4.724243875E0,5.065092087E-1,-5.985949030E0,-3.647464765E0,7.027953940E0
4.734178875E0,6.319331539E-1,-5.712760098E0,-4.723432844E0,7.439474799E0
4.744114875E0,3.648297116E-1,-5.221620880E0,-5.584079254E0,7.653781186E0
4.754049875E0,-9.028071731E-2,-5.395472050E0,-6.664303229E0,8.575092232E0
4.763985875E0,-4.959731108E-1,-6.276195459E0,-7.097321123E0,9.487285486E0
4.773920875E0,-1.318533096E0,-7.435365032E0,-6.116798022E0,9.717942206E0
4.783855875E0,-2.052181490E0,-8.681237118E0,-5.020363226E0,1.023617964E1
4.793791875E0,-2.622392020E0,-9.941745955E0,-4.765105366E0,1.133232022E1
4.803726875E0,-2.348725955E0,-1.043015452E1,-4.804508875E0,1.172126028E1
4.813662875E0,-1.134332939E0,-9.502622983E0,-5.024778458E0,1.080902185E1
4.823597875E0,1.741341752E-1,-8.277350637E0,-5.348099663E0,9.856319105E0
4.833532875E0,1.429408000E0,-7.465589290E0,-5.830519513E0,9.579832382E0
4.843468875E0,2.737666368E0,-6.540927563E0,-6.511139508E0,9.626707029E0
4.853403875E0,4.516536720E0,-5.350339732E0,-7.620501328E0,1.034878156E1
4.863339875E0,5.923001999E0,-4.377947476E0,-9.119997563E0,1.172274423E1
4.873274875E0,6.657385973E0,-3.712186133E0,-1.050492170E1,1.297900203E1
4.883209875E0,6.700964102E0,-3.833887156E0,-1.141975367E1,1.378449798E1
4.893145875E0,6.625105249E0,-4.468554468E0,-1.163124278E1,1.411190304E1
4.903080875E0,7.817138513E0,-4.984877644E0,-1.014385262E1,1.374243085E1
4.913016875E0,9.482865826E0,-4.796713367E0,-7.727945670E0,1.313980014E1
4.922951875E0,1.063435216E1,-4.783811485E0,-6.583801103E0,1.339106923E1
4.932886875E0,1.189660931E1,-4.961353710E0,-5.985214620E0,1.421151427E1
4.942822875E0,1.222221736E1,-5.080281984E0,-5.930609812E0,1.450393033E1
4.952757875E0,1.173993434E1,-5.918001460E0,-7.193541734E0,1.498652202E1
4.962693875E0,1.043549303E1,-7.018277292E0,-8.878432127E0,1.539422905E1
4.972628875E0,9.059911575E0,-7.974877680E0,-9.805583598E0,1.555088877E1
4.982563875E0,8.735712703E0,-8.209631109E0,-9.950696872E0,1.557970114E1
4.992499875E0,9.195231348E0,-7.866866158E0,-8.844199603E0,1.498865335E1
5.002434875E0,8.725994630E0,-7.923791142E0,-6.926283048E0,1.367124154E1
5.012370875E0,7.679372265E0,-8.812440451E0,-5.109397609E0,1.275687301E1
5.022305875E0,7.058568116E0,-9.809712317E0,-3.789061232E0,1.266533950E1
5.032240875E0,6.633265039E0,-1.010019264E1,-2.450650233E0,1.232963028E1
5.042176875E0,5.946432377E0,-1.023063466E1,-1.005945333E0,1.187593658E1
5.052111875E0,5.435596229E0,-1.062147542E1,-2.099700058E-1,1.193337898E1
5.062047875E0,5.538114291E0,-1.065563953E1,-4.641870618E-2,1.200897658E1
5.071982875E0,6.595205512E0,-1.039399534E1,-1.421382111E-1,1.231064897E1
5.081917875E0,8.882518746E0,-1.051124254E1,1.654686016E-1,1.376273007E1
5.091853875E0,1.183589182E1,-1.040566872E1,1.089036314E0,1.579722371E1
5.101788875E0,1.424356707E1,-1.024339562E1,2.561814281E0,1.773046105E1
5.111724875E0,1.537291233E1,-1.122331646E1,4.595992779E0,1.958091968E1
5.121659875E0,1.505851690E1,-1.307216863E1,7.674371141E0,2.136671468E1
5.131594875E0,1.331125426E1,-1.405340977E1,1.122301241E1,2.237507148E1
5.141530875E0,9.787104642E0,-1.454013083E1,1.488696427E1,2.299618506E1
5.151465875E0,5.415193539E0,-1.459359660E1,1.781023764E1,2.365379351E1
5.161401875E0,5.472420824E-1,-1.330065560E1,1.887375261E1,2.309600508E1
5.171336875E0,-2.597309804E0,-1.130558913E1,1.693306174E1,2.052537316E1
5.181271875E0,-2.637062100E0,-9.156164346E0,1.271216959E1,1.588674598E1
5.191207875E0,-1.133039535E0,-6.900400348E0,8.498599337E0,1.100570281E1
5.201142875E0,3.353255385E-1,-5.077772943E0,5.600269609E0,7.566983611E0
5.211078875E0,1.609132698E0,-3.959088907E0,4.177532113E0,5.976241927E0
5.221013875E0,2.182110130E0,-3.256096880E0,3.733318263E0,5.413080155E0
5.230948875E0,2.252855008E0,-2.345198915E0,3.479428943E0,4.762534977E0
5.240884875E0,2.032305050E0,-1.557405304E0,3.064057654E0,3.993021964E0
5.250819875E0,1.321642061E0,-1.291794949E0,2.388688166E0,3.020149513E0
5.260755875E0,7.673359573E-1,-1.178577066E0,1.704630593E0,2.209890004E0
5.270690875E0,4.026252365E-1,-9.928770983E-1,1.244940917E0,1.642495023E0
5.280625875E0,4.519868463E-1,-6.605061579E-1,9.873339379E-1,1.270979464E0
5.290561875E0,1.221645902E0,-2.549321705E-1,9.996841344E-1,1.598992649E0
5.300496875E0,2.375965794E0,-1.179792702E-2,1.030302494E0,2.589763672E0
5.310432875E0,3.660149422E0,-7.341705501E-2,7.187046647E-1,3.730766711E0
5.320367875E0,4.437826765E0,-1.101252902E-1,3.865752143E-1,4.455993085E0
5.330303042E0,4.264929276E0,-5.687288457E-1,1.232081428E-1,4.304445897E0
5.340239042E0,4.129666806E0,-1.049760566E0,1.880610734E-3,4.261003252E0
5.350174042E0,4.378717262E0,-7.412562060E-1,5.391540675E-1,4.473624116E0
5.360110042E0,4.874133133E0,-4.628521425E-1,9.385599732E-1,4.985208193E0
5.370045042E0,5.743568493E0,-3.410318363E-1,1.164768866E0,5.870397623E0
5.379980042E0,6.179293647E0,-5.581869006E-2,1.937453856E0,6.476149562E0
5.389916042E0,6.172001585E0,-2.107927090E-1,2.449348935E0,6.643594459E0
5.399851042E0,5.656850776E0,-7.744052410E-1,2.423922903E0,6.202827292E0
5.409787042E0,4.923977138E0,-1.687237465E0,2.723386298E0,5.874449255E0
5.419722042E0,4.120981352E0,-2.884774713E0,3.291164972E0,6.011337565E0
5.429657042E0,2.986519774E0,-3.875424607E0,3.709941680E0,6.140185950E0
5.439593042E0,1.493188843E0,-4.597990188E0,3.503925853E0,5.970646789E0
5.449528042E0,-4.595326781E-3,-5.113730396E0,2.888171360E0,5.872971436E0
5.459464042E0,-9.182979092E-1,-5.288362169E0,1.527747496E0,5.580686149E0
5.469399042E0,-1.606105886E0,-5.401608703E0,3.063870835E-1,5.643653581E0
5.479334042E0,-1.887035947E0,-5.375619584E0,2.914532948E-1,5.704659113E0
5.489270042E0,-1.548883865E0,-5.351250143E0,9.252283216E-1,5.647208759E0
5.499205042E0,-6.990779006E-1,-5.274663312E0,1.105965173E0,5.434513956E0
5.509141042E0,5.339589626E-2,-4.933596393E0,7.022970852E-1,4.983617731E0
5.519076042E0,4.177692327E-1,-4.860322010E0,5.258900973E-1,4.906508083E0
5.529011042E0,4.040086877E-1,-5.100585271E0,-2.701296687E-2,5.116631980E0
5.538947042E0,-2.373224035E-1,-5.281792238E0,-1.127544614E0,5.406015910E0
5.548882042E0,-1.079542482E0,-5.703988690E0,-1.849304742E0,6.092686351E0
5.558818042E0,-1.863743271E0,-6.767636978E0,-1.930631910E0,7.280232745E0
5.568753042E0,-1.838366940E0,-7.581817904E0,-1.944198035E0,8.040115778E0
5.578688042E0,-1.132738404E0,-7.761162533E0,-1.805066755E0,8.048416374E0
5.588624042E0,-4.275194648E-1,-7.625485495E0,-1.565955688E0,7.796346525E0
5.598559042E0,-3.473816201E-1,-7.298877570E0,-1.816945081E0,7.529646552E0
5.608495042E0,-3.734426603E-1,-7.204313475E0,-2.615344664E0,7.673435982E0
5.618430042E0,-2.779386252E-1,-7.502669992E0,-3.685510843E0,8.363629420E0
5.628365042E0,1.354507506E-2,-7.460976421E0,-5.136139850E0,9.057940449E0
5.638301042E0,-1.033331645E-1,-7.932042732E0,-6.623969720E0,1.033464825E1
5.648236042E0,-8.402747101E-1,-9.584336067E0,-7.156022490E0,1.199058870E1
5.658172042E0,-1.501360327E0,-1.149500383E1,-6.869435248E0,1.347510061E1
5.668107042E0,-1.479589389E0,-1.304487850E1,-6.099329465E0,1.447618250E1
5.678042042E0,-5.032289207E-1,-1.411829515E1,-4.710575987E0,1.489191134E1
5.687978042E0,1.063355343E0,-1.384500682E1,-3.707089700E0,1.437210675E1
5.697913042E0,4.061007630E0,-1.153694591E1,-4.277979092E0,1.295739206E1
5.707849042E0,9.388346170E0,-6.506095115E0,-7.039651789E0,1.341741461E1
5.717784042E0,1.370690260E1,-1.210904129E0,-1.115224239E1,1.771208565E1
5.727719042E0,1.497334636E1,5.514545627E-1,-1.517290598E1,2.132421814E1
5.737655042E0,1.467775090E1,-5.378098657E-1,-1.807713380E1,2.329180923E1
5.747590042E0,1.379213629E1,-2.002493898E0,-1.854536479E1,2.319835254E1
5.757526042E0,1.259037911E1,-2.657176521E0,-1.702194409E1,2.133834140E1
5.767461042E0,1.132301851E1,-4.003355253E0,-1.462025055E1,1.892060590E1
5.777396042E0,9.710295618E0,-5.616460549E0,-1.154530041E1,1.609746662E1
5.787332042E0,8.310414888E0,-6.794548788E0,-8.609647318E0,1.376062919E1
5.797267042E0,7.448303751E0,-7.497948366E0,-6.617402712E0,1.246942168E1
5.807203042E0,6.715393860E0,-7.861137641E0,-5.159511171E0,1.155484986E1
5.817138042E0,6.118571482E0,-7.847598998E0,-4.799396362E0,1.104789267E1
5.827073042E0,5.350798738E0,-7.813682808E0,-5.013483392E0,1.071539555E1
5.837009042E0,4.764469773E0,-7.735606692E0,-5.028434722E0,1.038387880E1
5.846944042E0,4.354553059E0,-7.670752884E0,-4.855711480E0,1.006878921E1
5.856880042E0,3.871716303E0,-8.108981232E0,-4.532435007E0,1.006423027E1
5.866815042E0,4.754359937E0,-8.503377097E0,-3.438689930E0,1.033130916E1
5.876750042E0,6.274152442E0,-8.313323877E0,-1.740824858E0,1.055967869E1
5.886686042E0,7.554428376E0,-8.443601596E0,8.869144410E-2,1.133012190E1
5.896621042E0,9.109428720E0,-9.117958054E0,1.473472324E0,1.297266246E1
5.906557042E0,1.045501338E1,-9.686653571E0,2.447821643E0,1.446134132E1
5.916492042E0,1.153870826E1,-1.018070996E1,3.199303460E0,1.571700309E1
5.926427042E0,1.223069582E1,-1.074179708E1,4.035020265E0,1.677073384E1
5.936363042E0,1.262491510E1,-1.120800143E1,5.409638684E0,1.772771751E1
5.946298042E0,1.259550829E1,-1.152453812E1,7.500518802E0,1.864724082E1
5.956234042E0,1.255439067E1,-1.166407607E1,9.539882026E0,1.961307586E1
5.966169042E0,1.144429093E1,-1.146948658E1,1.142054071E1,1.982295809E1
5.976104042E0,9.763639766E0,-1.024532637E1,1.265213974E1,1.898346686E1
5.986040042E0,7.142793165E0,-9.475597152E0,1.259867748E1,1.730702487E1
5.995975042E0,3.931922743E0,-9.339340655E0,1.183120470E1,1.557757057E1
6.005911042E0,1.279187182E0,-8.746470410E0,1.101289505E1,1.412164728E1
6.015846042E0,-1.123624349E-1,-7.458518836E0,1.029600536E1,1.271415963E1
6.025781042E0,-1.610124385E-1,-6.096132792E0,9.018067145E0,1.088642710E1
6.035717042E0,7.136058927E-1,-4.745947548E0,7.416993080E0,8.834310265E0
6.045652042E0,1.790340834E0,-3.284931840E0,5.725211159E0,6.839162252E0
6.055588042E0,2.429589440E0,-1.982485311E0,4.017880322E0,5.096716113E0
6.065523042E0,2.946707252E0,-1.009874370E0,2.521516441E0,4.007614631E0
6.075458042E0,2.850347477E0,-6.482951251E-1,1.362978952E0,3.225287418E0
6.085394042E0,2.274449944E0,-8.262656584E-1,4.603401786E-1,2.463280449E0
6.095329042E0,2.306102092E0,-8.842627287E-1,-3.037687004E-2,2.470010159E0
6.105265042E0,2.923912466E0,-5.049789923E-1,-2.818112361E-1,2.980551202E0
6.115200042E0,3.762984404E0,-1.165946496E-1,-5.544999388E-1,3.805406170E0
6.125135042E0,4.341419628E0,7.556532204E-2,-3.650530753E-1,4.357395810E0
6.135071042E0,4.875187386E0,6.783062518E-2,2.406366053E-1,4.881593902E0
6.145006042E0,5.093766248E0,-1.785745507E-1,9.323388281E-1,5.181466891E0
6.154941042E0,4.808122746E0,-8.164531535E-1,1.749093698E0,5.181116565E0
6.164877042E0,4.591870492E0,-1.259812433E0,2.351994841E0,5.310770351E0
6.174812042E0,4.478747919E0,-1.585761961E0,2.370977827E0,5.309930299E0
6.184748042E0,4.540011536E0,-1.737659175E0,2.047082133E0,5.274628842E0
6.194683042E0,4.516886383E0,-1.930886264E0,2.232127798E0,5.395644435E0
6.204618042E0,4.660923770E0,-2.165451413E0,2.809787096E0,5.857328208E0
6.214554042E0,4.592383293E0,-2.601508690E0,3.306392291E0,6.228166805E0
6.224489042E0,4.164829622E0,-3.481684214E0,3.949104202E0,6.712924456E0
6.234425042E0,3.190220395E0,-4.377457187E0,4.392144223E0,6.973562108E0
6.244360042E0,2.185486897E0,-4.928754898E0,4.286504917E0,6.887895341E0
6.254296042E0,1.087876226E0,-5.283710709E0,3.416376078E0,6.385350347E0
6.264231042E0,1.234411544E-1,-5.374771153E0,2.453504552E0,5.909575894E0
6.274166042E0,-3.540068078E-1,-5.246479733E0,2.127713044E0,5.672568484E0
6.284102042E0,-3.919768721E-1,-5.240150707E0,2.562562725E0,5.846328165E0
6.294037042E0,-2.440651202E-1,-5.153745232E0,2.334776838E0,5.663200560E0
6.303973042E0,-1.188043123E-1,-5.391742696E0,1.814381954E0,5.690077824E0
6.313908042E0,-1.195258588E-1,-5.550113363E0,1.466956187E0,5.741951343E0
6.323843042E0,-8.037407219E-2,-5.654979082E0,9.972800517E-1,5.742805579E0
6.333778542E0,2.942769152E-1,-5.692141061E0,3.460300362E-1,5.710236909E0
6.343713542E0,3.931229264E-1,-5.692732800E0,-6.873577416E-1,5.747539737E0
6.353649542E0,5.805396366E-1,-5.838023245E0,-1.986589764E0,6.194035887E0
6.363584542E0,3.035076222E-1,-6.250135589E0,-2.595171477E0,6.774306367E0
6.373519542E0,-5.356517315E-1,-6.830916715E0,-2.556347135E0,7.313224776E0
6.383455542E0,-1.106989605E0,-7.186054959E0,-3.036668419E0,7.879477581E0
6.393390542E0,-8.000926441E-1,-7.047201129E0,-3.609430381E0,7.958088946E0
6.403325542E0,-5.353266263E-1,-6.831310233E0,-3.818809818E0,7.844532014E0
6.413261542E0,-1.325709969E-1,-6.927244331E0,-3.859388910E0,7.930899813E0
6.423196542E0,3.928872836E-1,-7.130676565E0,-4.192280545E0,8.281070272E0
6.433132542E0,8.243375391E-1,-7.409506890E0,-4.971182295E0,8.960634919E0
6.443067542E0,6.758036435E-1,-8.404308892E0,-5.729393672E0,1.019387416E1
6.453002542E0,5.972404540E-2,-9.875438529E0,-6.017940316E0,1.156475070E1
6.462938542E0,-3.497833639E-1,-1.035409277E1,-5.861755339E0,1.190335084E1
6.472873542E0,-1.036594391E-2,-9.559878334E0,-5.463441254E0,1.101092964E1
6.482809542E0,9.494176680E-1,-8.519891388E0,-5.269815971E0,1.006284769E1
6.492744542E0,1.821235768E0,-7.961386984E0,-5.931113257E0,1.009349726E1
6.502679542E0,3.262086768E0,-7.313202664E0,-7.292125790E0,1.083047745E1
6.512615542E0,5.663947542E0,-5.903364125E0,-9.259011022E0,1.235553701E1
6.522550542E0,8.548370837E0,-4.179634187E0,-1.108327448E1,1.460763359E1
6.532486542E0,1.117941440E1,-2.386216110E0,-1.204519525E1,1.660602487E1
6.542421542E0,1.248137298E1,-1.162796381E0,-1.292462701E1,1.800507567E1
6.552357542E0,1.210299263E1,-8.004271779E-1,-1.400780850E1,1.852948498E1
6.562292542E0,1.043614441E1,-1.720681200E0,-1.521298631E1,1.852859429E1
6.572227542E0,8.488419920E0,-3.265063878E0,-1.596933535E1,1.837752938E1
6.582163542E0,6.213462437E0,-5.058418075E0,-1.595049328E1,1.784973234E1
6.592098542E0,4.480229019E0,-7.229377565E0,-1.495085797E1,1.720071237E1
6.602033542E0,4.822734354E0,-9.153354759E0,-1.172064788E1,1.563381773E1
6.611969542E0,5.394559300E0,-9.782161406E0,-8.763259521E0,1.419812203E1
6.621904542E0,6.428583255E0,-1.009146976E1,-7.894871982E0,1.433504266E1
6.631840542E0,7.363708574E0,-1.027810353E1,-7.590447809E0,1.474715274E1
6.641775542E0,8.117885372E0,-1.046818364E1,-6.700806227E0,1.484532707E1
6.651710542E0,8.218280895E0,-1.113267292E1,-5.070831714E0,1.473736345E1
6.661646542E0,7.636285887E0,-1.220189946E1,-3.272607079E0,1.476174683E1
6.671581542E0,7.029326776E0,-1.294660318E1,-1.492659670E0,1.480722802E1
6.681517542E0,6.730153987E0,-1.304374999E1,-2.066844553E-2,1.467769783E1
6.691452542E0,7.378368713E0,-1.218588627E1,1.234244898E0,1.429893386E1
6.701388542E0,8.692121125E0,-1.088471005E1,2.228261619E0,1.410655991E1
6.711323542E0,1.082912291E1,-1.047540379E1,2.799737486E0,1.532457234E1
6.721258542E0,1.399092057E1,-9.848243129E0,3.249093670E0,1.741523359E1
6.731194542E0,1.715160493E1,-9.416943147E0,3.721217743E0,1.991742532E1
6.741129542E0,1.846863178E1,-1.104889051E1,4.571809865E0,2.200158601E1
6.751064542E0,1.685035404E1,-1.367790158E1,6.130744801E0,2.255228269E1
6.761000542E0,1.426826571E1,-1.477690681E1,8.213615987E0,2.212247429E1
6.770935542E0,1.129756324E1,-1.487214158E1,1.046019167E1,2.140633411E1
6.780871542E0,7.201527277E0,-1.454488111E1,1.240745014E1,2.042939990E1
6.790806542E0,2.450095625E0,-1.334716552E1,1.329595327E1,1.899821490E1
6.800741542E0,-1.208938149E0,-1.147142552E1,1.258259647E1,1.706976475E1
6.810677542E0,-2.614189546E0,-9.316992012E0,1.112416406E1,1.474406162E1
6.820612542E0,-1.814454752E0,-7.071371180E0,9.705852903E0,1.214496262E1
6.830548542E0,-3.280638814E-1,-5.014983788E0,8.703136695E0,1.004998889E1
6.840483542E0,1.112028151E0,-3.430944124E0,7.951977645E0,8.731662651E0
6.850418542E0,1.904649222E0,-2.443913364E0,7.039803232E0,7.691503802E0
6.860354542E0,1.954410782E0,-2.026427136E0,5.685096921E0,6.344009414E0
6.870289542E0,1.473339300E0,-1.970724514E0,3.740169153E0,4.476979908E0
6.880225542E0,5.788948148E-1,-2.001135590E0,1.636804061E0,2.649299981E0
6.890160542E0,-7.894267380E-2,-1.910725649E0,4.319420063E-1,1.960530119E0
6.900096542E0,3.284322560E-2,-1.533266829E0,1.403039396E-1,1.540023065E0
6.910031542E0,5.370158869E-1,-8.865931365E-1,4.241921067E-1,1.119987677E0
6.919966542E0,1.277874482E0,-5.255810720E-1,1.004894881E0,1.708511743E0
6.929902542E0,2.606399301E0,-2.788671631E-1,1.708677743E0,3.129003650E0
6.939837542E0,3.882255909E0,-2.528803825E-2,2.172529175E0,4.448868782E0
6.949772542E0,5.236312010E0,1.882575399E-1,2.028839990E0,5.618771758E0
6.959708542E0,6.563369762E0,4.384388477E-1,1.335368546E0,6.712172555E0
6.969643542E0,6.756142522E0,2.045110452E-1,6.200036645E-2,6.759521476E0
6.979579542E0,6.678583299E0,-3.619420642E-1,-1.162921146E0,6.788730554E0
6.989514542E0,6.138140359E0,-8.038155663E-1,-1.972716221E0,6.497268335E0
6.999449542E0,5.374170644E0,-1.498191136E0,-1.782165842E0,5.856825239E0
7.009385542E0,5.012952465E0,-1.955808266E0,-3.485513556E-1,5.392250591E0
7.019320542E0,4.733445616E0,-2.078699782E0,1.466545420E0,5.373756196E0
7.029256542E0,4.638883860E0,-2.278272854E0,3.215304950E0,6.086703261E0
7.039191542E0,5.388152506E0,-2.458679338E0,4.298329741E0,7.317986750E0
7.049126542E0,6.017028151E0,-2.722782281E0,4.342087380E0,7.903916366E0
7.059062542E0,5.790737396E0,-3.208537382E0,3.893778432E0,7.680420705E0
7.068997542E0,4.054930034E0,-4.093867813E0,2.851314021E0,6.429012591E0
7.078933542E0,1.722579791E0,-5.408100282E0,8.896947920E-1,5.745118503E0
7.088868542E0,-4.606834102E-1,-6.322455121E0,-8.783459312E-1,6.399778085E0
7.098803542E0,-1.841763295E0,-6.341543941E0,-1.645012967E0,6.805390456E0
7.108739542E0,-2.843287256E0,-6.201986691E0,-1.454438760E0,6.975981182E0
7.118674542E0,-3.599643604E0,-6.191179283E0,-9.814177251E-1,7.228507158E0
7.128610542E0,-4.025283481E0,-6.190386985E0,-7.324081993E-1,7.420257401E0
7.138545542E0,-3.833238992E0,-6.016188490E0,-1.425551176E-1,7.135023972E0
7.148480542E0,-3.430859339E0,-5.866295702E0,5.009204400E-1,6.814333596E0
7.158416542E0,-2.999983865E0,-6.178797804E0,1.000842468E0,6.941118867E0
7.168351542E0,-2.618647463E0,-6.344230152E0,9.547684550E-1,6.929513227E0
7.178287542E0,-2.249231488E0,-6.304599479E0,5.200402504E-1,6.713974884E0
7.188222542E0,-1.546472473E0,-6.380438451E0,2.512808767E-1,6.569985845E0
7.198157542E0,-1.450923414E0,-6.969834865E0,-2.417268187E-2,7.119294987E0
7.208093542E0,-2.221201983E0,-8.121343415E0,-4.671363974E-1,8.432566248E0
7.218028542E0,-3.073616097E0,-9.354349873E0,-1.106250809E0,9.908318137E0
7.227964542E0,-2.732651796E0,-1.028890918E1,-1.695427368E0,1.077977328E1
7.237899542E0,-1.259512763E0,-1.023744316E1,-1.786734564E0,1.046823936E1
7.247834542E0,1.585484219E-1,-9.035991785E0,-1.428177161E0,9.149534149E0
7.257770542E0,1.409820412E0,-7.656730676E0,-2.312044325E0,8.121494149E0
7.267705542E0,1.947461951E0,-6.355343955E0,-5.051713657E0,8.348821217E0
7.277641542E0,2.319406847E0,-5.304716831E0,-8.619975255E0,1.038381636E1
7.287576542E0,2.219456881E0,-5.338083383E0,-1.067998383E1,1.214426522E1
7.297511542E0,1.220190530E0,-6.978945411E0,-9.815441419E0,1.210526473E1
7.307447542E0,-4.668586546E-1,-9.602068334E0,-7.132423128E0,1.197034389E1
7.317382542E0,-1.884044804E0,-1.201988031E1,-4.782530068E0,1.307286278E1
7.327318542E0,-1.710488918E0,-1.355938437E1,-2.933934009E0,1.397822040E1
7.337254000E0,7.720745409E-1,-1.380963701E1,-1.870847638E0,1.395715746E1
7.347189000E0,5.279805354E0,-1.208901779E1,-2.027473203E0,1.334658545E1
7.357125000E0,1.086062069E1,-8.506176744E0,-4.256996651E0,1.443711000E1
7.367060000E0,1.518514888E1,-4.700770791E0,-8.566218878E0,1.805730042E1
7.376996000E0,1.843227263E1,-1.419127133E0,-1.399903417E1,2.318912576E1
7.386931000E0,1.955496493E1,3.513419393E-1,-1.877714141E1,2.711274855E1
7.396866000E0,1.859570347E1,2.102305358E-1,-2.225803215E1,2.900455792E1
7.406802000E0,1.687897148E1,-2.175887523E0,-2.273280501E1,2.839743982E1
7.416737000E0,1.469908856E1,-5.251731702E0,-1.967114676E1,2.511170853E1
7.426673000E0,1.307526415E1,-7.612829781E0,-1.449170419E1,2.095058949E1
7.436608000E0,1.180073836E1,-8.764434811E0,-8.011388864E0,1.674082122E1
7.446543000E0,9.562462803E0,-9.713603387E0,-2.896895406E0,1.393509198E1
7.456479000E0,6.857253744E0,-1.042418685E1,-3.285247151E-1,1.248172780E1
7.466414000E0,4.725177069E0,-1.032516075E1,6.197276759E-1,1.137190860E1
7.476350000E0,3.470823596E0,-9.560596957E0,1.818180013E-1,1.017274242E1
7.486285000E0,3.298894406E0,-8.594366205E0,-1.616942385E0,9.346675208E0
7.496220000E0,4.065422863E0,-7.527949260E0,-3.089684831E0,9.096363860E0
7.506156000E0,5.227444707E0,-7.369056437E0,-3.891612331E0,9.837368422E0
7.516091000E0,5.609773673E0,-9.336100713E0,-3.910694135E0,1.157263435E1
7.526027000E0,5.744105852E0,-1.243009640E1,-2.880085538E0,1.399274603E1
7.535962000E0,7.538492959E0,-1.389163602E1,-5.405163226E-1,1.581450554E1
7.545897000E0,1.089571334E1,-1.394486440E1,2.480266673E0,1.786973797E1
7.555833000E0,1.450755950E1,-1.415505543E1,5.671977523E0,2.104771260E1
7.565768000E0,1.787590889E1,-1.320754570E1,8.428661376E0,2.377035369E1
7.575704000E0,2.061562880E1,-1.157406754E1,1.015783332E1,2.573217379E1
7.585639000E0,2.110011973E1,-1.196145727E1,1.158213436E1,2.687819468E1
7.595574000E0,1.877914232E1,-1.367308464E1,1.375673257E1,2.699735396E1
7.605510000E0,1.315978565E1,-1.440776858E1,1.629014400E1,2.541913738E1
7.615445000E0,5.888799881E0,-1.428356085E1,1.786787014E1,2.362115276E1
7.625381000E0,5.564093471E-1,-1.299335635E1,1.753149385E1,2.182865496E1
7.635316000E0,-1.134183251E0,-1.023313961E1,1.488299518E1,1.809715623E1
7.645251000E0,-1.574568636E0,-7.388035330E0,1.117236616E1,1.348644127E1
7.655187000E0,-1.260042229E0,-5.111962783E0,8.131859048E0,9.687466206E0
7.665122000E0,2.845220053E-1,-2.882578791E0,6.076411303E0,6.731492226E0
7.675058000E0,2.536592317E0,-9.579394001E-1,4.344491462E0,5.121186829E0
7.684993000E0,4.604126841E0,7.178404462E-1,3.042361268E0,5.565001434E0
7.694928000E0,5.618339844E0,1.588735855E0,1.932322925E0,6.150097244E0
7.704864000E0,5.686557555E0,1.526341386E0,1.066114644E0,5.983582145E0
7.714799000E0,4.924322709E0,8.425112700E-1,4.923799968E-1,5.020081418E0
7.724735000E0,3.456489732E0,-4.011312729E-1,2.205245224E-1,3.486668701E0
7.734670000E0,2.063633847E0,-1.677809415E0,9.901353389E-2,2.661471917E0
7.744605000E0,1.203016089E0,-2.136607683E0,-4.434440643E-2,2.452408311E0
7.754541000E0,1.250903031E0,-1.860385215E0,-1.354431492E-1,2.245915490E0
7.764476000E0,1.927574401E0,-1.464573154E0,-2.590214208E-1,2.434668292E0
7.774412000E0,3.374450372E0,-1.024566084E0,-2.173144010E-1,3.533252966E0
7.784347000E0,4.740833573E0,-2.556075239E-1,6.180623889E-2,4.748121543E0
7.794282000E0,5.924870769E0,1.632519221E-1,8.134903693E-1,5.982684298E0
7.804218000E0,6.880523323E0,1.278043467E-1,1.967712028E0,7.157501364E0
7.814153000E0,7.282848013E0,-4.164071238E-1,3.121779320E0,7.934656653E0
7.824089000E0,6.763656194E0,-1.451205835E0,3.782195431E0,7.884037402E0
7.834024000E0,5.063537312E0,-2.754832039E0,3.438614209E0,6.712121673E0
7.843959000E0,2.846346227E0,-3.939194925E0,2.562624121E0,5.494177453E0
7.853895000E0,1.136447877E0,-4.745496143E0,1.904476730E0,5.238156072E0
7.863830000E0,2.772866607E-2,-4.788596554E0,1.781551300E0,5.109339573E0
7.873766000E0,-7.138269174E-1,-4.515101813E0,1.882702868E0,4.943709472E0
7.883701000E0,-9.891097373E-1,-4.464109415E0,2.575634760E0,5.247904854E0
7.893636000E0,-1.107796228E0,-4.573119056E0,3.276845725E0,5.733964448E0
7.903572000E0,-1.111719125E0,-5.046804335E0,3.291487153E0,6.126992826E0
7.913507000E0,-5.334201416E-1,-5.132347346E0,2.813816704E0,5.877337048E0
7.923443000E0,-4.588155171E-1,-5.078851170E0,1.956355273E0,5.461919703E0
7.933378000E0,-7.564727077E-1,-5.073242521E0,1.560585459E0,5.361479983E0
7.943313000E0,-1.144631348E0,-5.192109398E0,1.371119299E0,5.490733017E0
7.953249000E0,-1.012739505E0,-5.294623368E0,9.938515368E-1,5.481461374E0
7.963184000E0,-5.516777802E-1,-5.358170907E0,1.747229898E-1,5.389329455E0
7.973120000E0,-1.251538038E-1,-5.390946890E0,-5.176586795E-1,5.417189525E0
7.983055000E0,3.171564853E-1,-5.403610790E0,-1.176546328E0,5.539301316E0
7.992990000E0,1.010001839E0,-5.363411182E0,-1.869364200E0,5.768951875E0
8.002926000E0,1.457700922E0,-5.185762830E0,-2.334823908E0,5.870982098E0
8.012861000E0,1.730319166E0,-4.605506199E0,-2.796035614E0,5.658843249E0
8.022797000E0,1.767183814E0,-3.885037429E0,-3.622495108E0,5.598118011E0
8.032732000E0,1.562549392E0,-3.822004445E0,-3.935028200E0,5.703834281E0
8.042667000E0,5.769874531E-1,-4.147507246E0,-3.871216950E0,5.702723170E0
8.052603000E0,-3.935088426E-2,-4.787829984E0,-4.329783376E0,6.455376715E0
8.062538000E0,-2.752126533E-1,-5.536584660E0,-4.761145339E0,7.307394654E0
8.072474000E0,-4.255878371E-1,-6.066936475E0,-4.638335391E0,7.648725280E0
8.082409000E0,-1.818659484E-1,-5.960589071E0,-4.206950332E0,7.297953713E0
8.092344000E0,2.864048088E-1,-5.783647648E0,-4.002229664E0,7.039208060E0
8.102280000E0,1.169256020E0,-5.107078019E0,-4.280606246E0,6.765574282E0
8.112215000E0,1.425123745E0,-4.603901138E0,-4.935944635E0,6.898581942E0
8.122150000E0,1.070179043E0,-5.210738627E0,-5.634786308E0,7.749057811E0
8.132086000E0,6.221279579E-1,-6.353134292E0,-5.876525406E0,8.676572444E0
8.142021000E0,4.125058615E-1,-7.441788783E0,-5.532853552E0,9.282394616E0
8.151957000E0,1.924774754E-1,-8.519669194E0,-4.954198472E0,9.857276158E0
8.161892000E0,9.534703732E-2,-9.321653997E0,-4.517982152E0,1.035927058E1
8.171827000E0,5.756981421E-1,-9.787280059E0,-4.476670403E0,1.077788742E1
8.181763000E0,1.994647227E0,-9.574876442E0,-4.748235564E0,1.087210271E1
8.191698000E0,4.775342086E0,-7.548366567E0,-5.696066297E0,1.059371989E1
8.201634000E0,7.813421438E0,-4.833047673E0,-7.347364436E0,1.176399883E1
8.211569000E0,1.101792483E1,-2.718116203E0,-9.531443909E0,1.481996107E1
8.221504000E0,1.328493010E1,-9.813879043E-1,-1.142501617E1,1.754945823E1
8.231440000E0,1.380257240E1,-7.408185419E-1,-1.247151691E1,1.861715744E1
8.241375000E0,1.400622742E1,-1.392220293E0,-1.185318087E1,1.840137442E1
8.251311000E0,1.335371323E1,-1.864541416E0,-1.040378475E1,1.703047001E1
8.261246000E0,1.244081201E1,-2.900873559E0,-8.729267317E0,1.547220019E1
8.271181000E0,1.157230870E1,-3.617316229E0,-6.338967658E0,1.368158676E1
8.281117000E0,1.015588386E1,-4.013891936E0,-4.271004533E0,1.172581703E1
8.291052000E0,8.776502879E0,-4.806138786E0,-3.353589846E0,1.055331880E1
8.300988000E0,7.196123865E0,-5.811014371E0,-3.573864985E0,9.915876039E0
8.310923000E0,5.433261436E0,-6.737645440E0,-4.529864278E0,9.769128225E0
8.320858000E0,4.078366259E0,-7.365147573E0,-5.874454907E0,1.026585070E1
8.330794000E0,3.556459578E0,-7.612795283E0,-7.217293124E0,1.107665910E1
8.340729042E0,3.979665844E0,-8.032744650E0,-7.888088043E0,1.194088187E1
8.350665042E0,4.207969794E0,-8.975077831E0,-7.354336072E0,1.234282346E1
8.360600042E0,4.994737803E0,-1.050398381E1,-6.240672455E0,1.319951038E1
8.370535042E0,6.501190470E0,-1.220078030E1,-3.947746186E0,1.437738562E1
8.380471042E0,8.115992628E0,-1.376246986E1,-1.106674148E0,1.601560616E1
8.390406042E0,9.856129854E0,-1.499400925E1,1.420245997E0,1.799946410E1
8.400342042E0,1.173731595E1,-1.551236726E1,3.429103712E0,1.975238912E1
8.410277042E0,1.409377661E1,-1.594381342E1,5.281247277E0,2.192558547E1
8.420213042E0,1.555280777E1,-1.672321569E1,7.458365055E0,2.402463281E1
8.430148042E0,1.599095367E1,-1.662124727E1,1.030216716E1,2.526086119E1
8.440083042E0,1.619816262E1,-1.548090222E1,1.337090522E1,2.609252598E1
8.450019042E0,1.525810810E1,-1.417666206E1,1.625289490E1,2.641863362E1
8.459954042E0,1.316275136E1,-1.266011885E1,1.799941495E1,2.564206643E1
8.469890042E0,1.011818920E1,-1.094726239E1,1.788321791E1,2.328153322E1
8.479825042E0,6.854906672E0,-9.743289117E0,1.656018713E1,2.040003005E1
8.489760042E0,3.491422167E0,-9.453664831E0,1.428212595E1,1.747972909E1
8.499696042E0,7.428390473E-1,-8.710000157E0,1.110811930E1,1.413528305E1
8.509631042E0,-6.009505123E-1,-7.289510331E0,7.766772936E0,1.066868615E1
8.519566042E0,-8.751586139E-1,-5.367760341E0,5.552009615E0,7.771973008E0
8.529502042E0,-3.899402869E-1,-3.539798521E0,4.565578779E0,5.790227680E0
8.539437042E0,6.618083328E-1,-2.135150557E0,3.922939666E0,4.515120573E0
8.549373042E0,1.759583895E0,-1.010266718E0,3.224123136E0,3.809428346E0
8.559308042E0,2.648636078E0,-2.843840110E-1,2.466166112E0,3.630168403E0
8.569243042E0,3.455367066E0,-3.342180759E-1,1.993834172E0,4.003328364E0
8.579179042E0,3.612458362E0,-6.532439160E-1,1.811277959E0,4.093569454E0
8.589114042E0,3.557789819E0,-1.059015539E0,1.654250691E0,4.063979289E0
8.599050042E0,3.849048402E0,-1.153915849E0,1.669998997E0,4.351504571E0
8.608985042E0,3.968492399E0,-1.095311546E0,1.446704063E0,4.363667260E0
8.618920042E0,4.372104646E0,-1.161752872E0,1.200151830E0,4.680313364E0
8.628856042E0,4.897330792E0,-9.279852837E-1,1.069016032E0,5.097823148E0
8.638791042E0,5.125420734E0,-9.893026954E-1,9.198417203E-1,5.300449633E0
8.648727042E0,5.521714606E0,-1.235565784E0,1.137605114E0,5.771490309E0
8.658662042E0,5.605899308E0,-1.354980546E0,1.636018195E0,5.994884058E0
8.668597042E0,5.560800319E0,-1.832375883E0,2.761089145E0,6.473307874E0
8.678533042E0,5.289008871E0,-2.427837029E0,4.161849881E0,7.154648972E0
8.688468042E0,4.677619325E0,-3.238462847E0,4.663390126E0,7.356287897E0
8.698404042E0,4.416839354E0,-4.093712862E0,4.597194382E0,7.576354734E0
8.708339042E0,3.586223075E0,-4.662451648E0,4.244525417E0,7.253650620E0
8.718274042E0,1.912703762E0,-5.300491633E0,3.251690419E0,6.505930972E0
8.728210042E0,1.940606090E-1,-5.752285522E0,1.777254619E0,6.023710005E0
8.738145042E0,-1.180904258E0,-5.846212855E0,2.788753492E-1,5.970804893E0
8.748081042E0,-1.863095692E0,-5.812019507E0,-8.640180601E-1,6.164188797E0
8.758016042E0,-2.043500421E0,-5.670823283E0,-4.427347970E-1,6.044017271E0
8.767951042E0,-1.850675914E0,-5.828378847E0,3.255856852E-1,6.123806607E0
8.777887042E0,-1.332000696E0,-6.053085006E0,7.292890021E-1,6.240667143E0
8.787822042E0,-6.899460116E-1,-6.024283960E0,7.292331612E-1,6.107356526E0
8.797758042E0,-2.732474041E-1,-6.012161513E0,5.299173671E-1,6.041652309E0
8.807693042E0,-3.154824275E-1,-6.245710416E0,3.996209371E-1,6.266428381E0
8.817628042E0,-9.095817572E-1,-6.853997430E0,-3.165881360E-1,6.921332804E0
8.827564042E0,-1.850747834E0,-7.665965184E0,-1.442197030E0,8.016995823E0
8.837499042E0,-2.078318252E0,-8.125004357E0,-2.342793370E0,8.707685303E0
8.847435042E0,-1.369973976E0,-8.614604003E0,-2.910655659E0,9.195659149E0
8.857370042E0,-5.958590493E-1,-8.750572817E0,-3.038375221E0,9.282203220E0
8.867305042E0,7.300921172E-1,-8.100013357E0,-3.075170580E0,8.694821734E0
8.877241042E0,2.022187613E0,-6.700263605E0,-3.368979717E0,7.767419099E0
8.887176042E0,2.246553463E0,-5.190119591E0,-4.252247542E0,7.075729856E0
8.897112042E0,2.112952187E0,-4.853183144E0,-5.917306226E0,7.939298871E0
8.907047042E0,1.919560207E0,-5.634043127E0,-6.727360772E0,8.982457141E0
8.916982042E0,9.215504229E-1,-7.303147792E0,-5.836063843E0,9.393873750E0
8.926918042E0,-3.153298151E-1,-9.091246803E0,-4.448403794E0,1.012612945E1
8.936853042E0,-6.061685675E-1,-1.003801217E1,-3.859578945E0,1.077151235E1
8.946789042E0,-4.160878658E-2,-1.000778090E1,-4.220770811E0,1.086150616E1
8.956724042E0,2.048354487E0,-8.784075608E0,-5.602752337E0,1.061821897E1
8.966659042E0,4.347824083E0,-6.614183235E0,-7.509479660E0,1.091069562E1
8.976595042E0,6.219189200E0,-4.721380764E0,-8.768096337E0,1.174092262E1
8.986530042E0,7.888200309E0,-3.427715876E0,-9.269905554E0,1.264531887E1
8.996466042E0,9.279551121E0,-2.467536992E0,-9.197083161E0,1.329605755E1
9.006401042E0,1.016139193E1,-1.857889770E0,-8.804462510E0,1.357292159E1
9.016336042E0,9.732012177E0,-1.633362097E0,-8.128036138E0,1.278455726E1
9.026272042E0,8.653516054E0,-2.005618358E0,-8.162198496E0,1.206347087E1
9.036207042E0,6.830379941E0,-3.302136979E0,-8.956041051E0,1.173749846E1
9.046143042E0,5.219556813E0,-5.072670663E0,-9.975678517E0,1.234868102E1
9.056078042E0,4.770742081E0,-6.337217587E0,-1.022808995E1,1.294349763E1
9.066013042E0,6.462953188E0,-6.147146825E0,-9.226995177E0,1.283334010E1
9.075949042E0,8.754306849E0,-4.610933000E0,-8.252527453E0,1.288420742E1
9.085884042E0,1.121252484E1,-3.595984124E0,-7.707493864E0,1.407328237E1
9.095820042E0,1.311860488E1,-2.891756288E0,-6.693198999E0,1.500862956E1
9.105755042E0,1.248357153E1,-3.309540724E0,-6.365221072E0,1.439821715E1
9.115690042E0,9.741733173E0,-5.259662281E0,-6.323959025E0,1.274981844E1
9.125626042E0,6.306724942E0,-7.368704435E0,-5.378288838E0,1.109047228E1
9.135561042E0,3.119578428E0,-9.160595366E0,-4.097967296E0,1.050912047E1
9.145497042E0,9.542088765E-1,-1.004353078E1,-3.468530903E0,1.066835187E1
9.155432042E0,7.025341898E-1,-9.707125842E0,-3.199980567E0,1.024508282E1
9.165367042E0,2.547312602E0,-8.495386877E0,-2.653205677E0,9.257424050E0
9.175303042E0,5.571661522E0,-6.932151314E0,-1.266796640E0,8.983479709E0
9.185238042E0,7.744179879E0,-6.825737836E0,-2.299610513E-1,1.032549762E1
9.195174042E0,9.554969596E0,-7.807488853E0,2.129596871E-1,1.234097557E1
9.205109042E0,1.030029371E1,-9.176013304E0,9.749583060E-1,1.382916535E1
9.215044042E0,9.685906296E0,-1.087597080E1,1.728130553E0,1.466594548E1
9.224980042E0,9.842192430E0,-1.225595463E1,2.760478111E0,1.595924231E1
9.234915042E0,1.024401075E1,-1.287520634E1,4.624368732E0,1.709080106E1
9.244851042E0,1.052920402E1,-1.285379384E1,7.316707485E0,1.815539484E1
9.254786042E0,1.009298419E1,-1.252810743E1,9.938752180E0,1.891033052E1
9.264721042E0,8.860981112E0,-1.231486299E1,1.217696225E1,1.945382344E1
9.274657042E0,7.301676047E0,-1.193167857E1,1.421068467E1,1.994048609E1
9.284592042E0,5.188115165E0,-1.135581905E1,1.531107803E1,1.975601872E1
9.294528042E0,3.053753398E0,-1.013208101E1,1.513664389E1,1.846895946E1
9.304463042E0,1.908056980E0,-8.409922804E0,1.399924935E1,1.644221595E1
9.314398042E0,1.422046355E0,-6.977089505E0,1.216883228E1,1.409902383E1
9.324334042E0,1.124937049E0,-5.971701120E0,9.941562352E0,1.165166768E1
9.334268250E0,8.417704278E-1,-5.219677266E0,7.710719188E0,9.349267276E0
9.344204250E0,6.513166738E-1,-4.480299770E0,6.017074928E0,7.530105586E0
9.354139250E0,7.081843543E-1,-3.552750689E0,4.901302221E0,6.094778585E0
9.364074250E0,1.373712101E0,-2.526616382E0,4.011345766E0,4.935764392E0
9.374010250E0,2.049787640E0,-1.553554913E0,3.215614268E0,4.117685922E0
9.383945250E0,2.746763467E0,-9.883098382E-1,2.352621955E0,3.749172701E0
9.393881250E0,3.744244663E0,-6.036294141E-1,1.505888118E0,4.080617060E0
9.403816250E0,4.669626181E0,-7.405849457E-2,6.641779169E-1,4.717205278E0
9.413751250E0,5.398045410E0,3.399904472E-1,1.334337536E-1,5.410387446E0
9.423687250E0,5.987613147E0,4.270513952E-1,7.451486975E-2,6.003285481E0
9.433622250E0,6.191170512E0,2.957667857E-1,2.501026627E-1,6.203275074E0
9.443558250E0,6.033482215E0,-2.464192092E-1,6.504954323E-1,6.073448310E0
9.453493250E0,5.658304394E0,-8.882172006E-1,1.132704344E0,5.838523575E0
9.463428250E0,5.511429938E0,-1.211733702E0,1.557851301E0,5.854148888E0
9.473364250E0,5.353804792E0,-1.440856263E0,1.447349596E0,5.730105878E0
9.483299250E0,5.108159754E0,-1.885713015E0,1.122114598E0,5.559527931E0
9.493234250E0,5.533624215E0,-2.062930427E0,1.527241273E0,6.099929901E0
9.503170250E0,5.635927684E0,-2.215931010E0,2.499332104E0,6.551388561E0
9.513105250E0,5.603897222E0,-2.748159197E0,3.255450763E0,7.039460399E0
9.523041250E0,5.536061919E0,-3.429618267E0,3.695595828E0,7.487836240E0
9.532976250E0,4.850793387E0,-3.829659619E0,4.266256009E0,7.509822210E0
9.542911250E0,3.820154970E0,-4.325595893E0,4.363341424E0,7.234853986E0
9.552847250E0,2.383601673E0,-4.954716536E0,4.028426360E0,6.816083320E0
9.562782250E0,7.851214331E-1,-5.459625946E0,3.035843377E0,6.296052426E0
9.572718250E0,-4.228443235E-1,-5.804080158E0,1.687071843E0,6.059072141E0
9.582653250E0,-1.290788058E0,-5.957107054E0,9.841015971E-1,6.174278437E0
9.592588250E0,-1.544493483E0,-6.016558619E0,7.574095778E-1,6.257643886E0
9.602524250E0,-8.559221515E-1,-5.995859476E0,6.056772552E-1,6.086852924E0
9.612459250E0,2.677983838E-1,-5.638805099E0,1.017441544E0,5.736115952E0
9.622395250E0,8.218437016E-1,-5.443360747E0,1.424596326E0,5.686394110E0
9.632330250E0,7.403589508E-1,-5.700247641E0,1.071104658E0,5.847069329E0
9.642265250E0,1.413345113E-1,-6.036668948E0,2.785385495E-1,6.044744093E0
9.652201250E0,-5.241175139E-1,-6.193417012E0,-8.235768163E-1,6.269879762E0
9.662136250E0,-1.140392409E0,-6.518347371E0,-1.804641370E0,6.859014343E0
9.672072250E0,-1.490318737E0,-7.263486713E0,-1.948237584E0,7.666480212E0
9.682007250E0,-1.657371350E0,-8.371003152E0,-1.343846862E0,8.638662972E0
9.691942250E0,-1.790649275E0,-9.482542475E0,-6.159454045E-1,9.669768630E0
9.701878250E0,-1.720209330E0,-1.049598131E1,-4.904834524E-1,1.064731505E1
9.711813250E0,-1.451575671E0,-1.094064101E1,-8.335148902E-1,1.106794672E1
9.721749250E0,-8.021070099E-1,-1.039353107E1,-1.783874106E0,1.057596665E1
9.731684250E0,4.888997340E-1,-8.679579433E0,-3.230579631E0,9.274198986E0
9.741619250E0,9.753208333E-1,-6.954102931E0,-5.248238575E0,8.766687313E0
9.751555250E0,7.356510651E-1,-6.406405351E0,-7.301669616E0,9.741539467E0
9.761490250E0,1.712509131E-1,-7.167223417E0,-8.405018159E0,1.104729599E1
9.771426250E0,-7.009612888E-1,-8.356444754E0,-8.063651862E0,1.163374389E1
9.781361250E0,-8.684313923E-1,-9.778039704E0,-7.155559391E0,1.214768553E1
9.791296250E0,-1.252415121E-1,-1.000833872E1,-6.748443493E0,1.207162040E1
9.801232250E0,1.318835397E0,-8.728407776E0,-7.136944195E0,1.135166955E1
9.811167250E0,3.085734744E0,-7.524953731E0,-7.477646248E0,1.104816188E1
9.821103250E0,5.407568185E0,-6.466960285E0,-7.429287436E0,1.123644431E1
9.831038250E0,8.109299905E0,-5.334311344E0,-7.316149660E0,1.215490306E1
9.840973250E0,1.028437408E1,-4.324251325E0,-7.647091541E0,1.352573506E1
9.850909250E0,1.108129578E1,-3.774797241E0,-8.547337049E0,1.449486740E1
9.860844250E0,1.103719725E1,-3.687398324E0,-9.263727971E0,1.487391292E1
9.870780250E0,1.042953121E1,-4.039264466E0,-9.193621609E0,1.447803360E1
9.880715250E0,1.000160624E1,-4.674731970E0,-8.389295581E0,1.386598452E1
9.890650250E0,9.689236286E0,-4.757869144E0,-6.938937593E0,1.283228247E1
9.900586250E0,9.128953743E0,-4.409556939E0,-5.790062043E0,1.167505063E1
9.910521250E0,8.659915831E0,-4.556155114E0,-5.489852543E0,1.122012355E1
9.920457250E0,8.662372246E0,-4.910495798E0,-5.709863387E0,1.147833620E1
9.930392250E0,8.794850273E0,-5.105494593E0,-6.068328697E0,1.184230043E1
9.940327250E0,8.453561159E0,-5.650039355E0,-7.360051725E0,1.255213139E1
9.950263250E0,8.218284988E0,-6.287553091E0,-9.080832328E0,1.376717283E1
9.960198250E0,8.311451014E0,-7.286534683E0,-1.039450639E1,1.517298813E1
9.970134250E0,8.700460424E0,-8.020945553E0,-1.046137632E1,1.579474513E1
9.980069250E0,8.871328930E0,-8.846373013E0,-8.417773860E0,1.509363141E1
9.990004250E0,9.664687920E0,-9.732754773E0,-4.646831396E0,1.448191113E1
9.999940250E0,9.381285657E0,-1.009730762E1,-7.114636190E-1,1.380109859E1
1.000987525E1,8.130265097E0,-1.068772671E1,1.802961026E0,1.354914688E1
1.001981125E1,6.563145813E0,-1.104068102E1,3.267489595E0,1.325322635E1
1.002974625E1,5.323724375E0,-1.079546049E1,3.764676881E0,1.261177230E1
1.003968125E1,5.363952050E0,-1.006190390E1,3.701371708E0,1.198807925E1
1.004961725E1,6.299763247E0,-9.138684679E0,2.600134594E0,1.140014362E1
1.005955225E1,7.990936473E0,-8.581768379E0,1.291765128E0,1.179705350E1
1.006948825E1,1.071585299E1,-8.849422921E0,2.898575896E-1,1.390056865E1
1.007942325E1,1.334396826E1,-1.056726471E1,4.416647565E-1,1.702714422E1
1.008935825E1,1.396226220E1,-1.363533034E1,2.660168542E0,1.969628127E1
1.009929425E1,1.377504488E1,-1.630703544E1,6.266610703E0,2.224728469E1
1.010922925E1,1.346999681E1,-1.751798094E1,1.047167443E1,2.445355671E1
1.011916525E1,1.226136564E1,-1.735534765E1,1.466664937E1,2.581975568E1
1.012910025E1,1.021795088E1,-1.515505326E1,1.768696196E1,2.543444088E1
1.013903525E1,8.221968150E0,-1.166379306E1,1.810596525E1,2.305365061E1
1.014897125E1,6.246978092E0,-9.187337022E0,1.659470442E1,1.997038085E1
1.015890625E1,4.807638012E0,-7.734181725E0,1.420072803E1,1.686984371E1
1.016884225E1,3.205171725E0,-6.859813655E0,1.195934058E1,1.415471640E1
1.017877725E1,2.104881275E0,-5.746979173E0,9.670418192E0,1.144444332E1
1.018871225E1,2.021929166E0,-4.342662746E0,7.249939299E0,8.689564840E0
1.019864825E1,2.228629408E0,-3.078955482E0,5.783516670E0,6.920680673E0
1.020858325E1,2.293632905E0,-2.251239422E0,5.372504187E0,6.260401910E0
1.021851925E1,2.131445761E0,-1.895876645E0,5.326203010E0,6.042006934E0
1.022845425E1,2.200504886E0,-1.580105365E0,4.956503445E0,5.648529111E0
1.023838925E1,2.613594300E0,-1.160522034E0,4.011325885E0,4.926299008E0
1.024832525E1,3.200760586E0,-9.079369354E-1,2.772798194E0,4.331007692E0
1.025826025E1,4.229988070E0,-9.170223391E-1,1.502201449E0,4.581521388E0
1.026819525E1,4.657592027E0,-9.034860349E-1,1.859911591E-1,4.748056783E0
1.027813125E1,4.726357037E0,-1.174738369E0,-9.772986540E-1,4.967250118E0
1.028806625E1,4.731418971E0,-1.421456956E0,-1.245014592E0,5.094794078E0
1.029800225E1,4.224009292E0,-1.721064193E0,-7.150589257E-1,4.616884850E0
1.030793725E1,3.701347734E0,-1.973058137E0,1.577387287E-1,4.197358094E0
1.031787225E1,3.733416204E0,-1.780449100E0,1.570123583E0,4.424215593E0
1.032780825E1,4.354501019E0,-1.460182480E0,3.146262782E0,5.567116083E0
1.033774350E1,4.965814551E0,-1.585891185E0,3.934234732E0,6.530893349E0
1.034767950E1,5.052019467E0,-2.078882800E0,3.778172547E0,6.642231717E0
1.035761450E1,4.697749534E0,-2.410242757E0,3.315109320E0,6.234426248E0
1.036754950E1,3.809428838E0,-2.810674703E0,2.565858800E0,5.384725781E0
1.037748550E1,2.975665587E0,-3.345110798E0,1.348483558E0,4.675763023E0
1.038742050E1,2.333627275E0,-3.648476041E0,2.798360467E-2,4.331047998E0
1.039735650E1,1.620611659E0,-3.808702614E0,-8.439895923E-1,4.224324346E0
1.040729150E1,9.803821832E-1,-3.915517795E0,-6.806638491E-1,4.093376614E0
1.041722650E1,8.651306391E-1,-3.785835907E0,-5.131267950E-1,3.917180574E0
1.042716250E1,6.737196958E-1,-3.890029197E0,3.539956981E-1,3.963778291E0
1.043709750E1,4.413156778E-2,-4.395267806E0,1.510042273E0,4.647639653E0
1.044703350E1,-7.843624645E-1,-5.203652971E0,1.928973055E0,5.604834143E0
1.045696850E1,-8.500524241E-1,-5.757918729E0,1.422503315E0,5.991638582E0
1.046690350E1,-2.275528756E-1,-5.481500380E0,7.306417555E-2,5.486708039E0
1.047683950E1,3.109522972E-1,-5.059945368E0,-1.184520468E0,5.206037571E0
1.048677450E1,3.458642676E-1,-4.991239999E0,-2.089960350E0,5.422179736E0
1.049671050E1,-3.251946527E-1,-5.513827296E0,-3.052880993E0,6.310952811E0
1.050664550E1,-1.385397761E0,-6.098165284E0,-4.125724613E0,7.491898983E0
1.051658050E1,-2.380145969E0,-6.611685889E0,-4.632014259E0,8.416355579E0
1.052651650E1,-2.250989453E0,-7.033859537E0,-4.019786222E0,8.408377654E0
1.053645150E1,-1.128962272E0,-6.788748350E0,-2.399601994E0,7.288329692E0
1.054638750E1,-5.030660757E-1,-6.342440320E0,-1.095981929E0,6.456066997E0
1.055632250E1,-7.451691628E-3,-6.266442888E0,-1.564275783E0,6.458739871E0
1.056625750E1,2.947031772E-1,-6.381507322E0,-3.169603697E0,7.131400511E0
1.057619350E1,-1.691342211E-1,-6.661711158E0,-5.100868860E0,8.392011980E0
1.058612850E1,-1.117360227E0,-7.799731352E0,-6.455965766E0,1.018645164E1
1.059606450E1,-2.038973799E0,-9.294550399E0,-6.277096515E0,1.139947463E1
1.060599950E1,-2.277193458E0,-1.031066901E1,-5.046137753E0,1.170294885E1
1.061593450E1,-1.766445018E0,-1.110467412E1,-3.901387706E0,1.190188814E1
1.062587050E1,-8.749849516E-1,-1.147132845E1,-3.389277742E0,1.199350569E1
1.063580550E1,1.076813879E0,-1.020522734E1,-4.064881703E0,1.103763817E1
1.064574150E1,3.792968341E0,-7.771057191E0,-5.760419583E0,1.039030185E1
1.065567650E1,6.225707091E0,-5.954499196E0,-7.353236210E0,1.132632210E1
1.066561150E1,8.644884979E0,-4.555471575E0,-8.355064226E0,1.285665026E1
1.067554750E1,1.013911170E1,-3.562621374E0,-8.807167432E0,1.389460526E1
1.068548250E1,1.067294378E1,-3.504637460E0,-9.193219905E0,1.451583635E1
1.069541850E1,1.098829231E1,-3.615143696E0,-9.724585043E0,1.511222638E1
1.070535350E1,1.088926971E1,-3.873140100E0,-1.112354776E1,1.604090782E1
1.071528850E1,1.081616080E1,-4.251541491E0,-1.218320006E1,1.683731877E1
1.072522450E1,1.073339463E1,-5.036604452E0,-1.205491449E1,1.690840348E1
1.073515950E1,1.179411581E1,-5.836295977E0,-1.031459834E1,1.671988210E1
1.074509550E1,1.358803689E1,-5.427469769E0,-8.066256212E0,1.670798204E1
1.075503050E1,1.370948239E1,-5.214258651E0,-6.383680147E0,1.599655503E1
1.076496550E1,1.276239367E1,-6.106478856E0,-5.666733740E0,1.524072332E1
1.077490150E1,1.080021895E1,-7.052271835E0,-5.617168062E0,1.406882527E1
1.078483650E1,8.704900800E0,-7.802249163E0,-5.884740744E0,1.308742005E1
1.079477250E1,6.958625168E0,-8.240117322E0,-5.523337208E0,1.211731206E1
1.080470750E1,5.622099604E0,-8.163719941E0,-4.719568419E0,1.097855424E1
1.081464250E1,4.976630146E0,-7.610073988E0,-4.446216935E0,1.012170533E1
1.082457850E1,5.364796388E0,-6.876927871E0,-3.980694369E0,9.587445169E0
1.083451350E1,6.250944843E0,-6.469589778E0,-2.912059575E0,9.455685819E0
1.084444850E1,7.058941169E0,-7.519490678E0,-1.840052985E0,1.047650636E1
1.085438450E1,6.752799084E0,-9.828178993E0,-5.313011107E-1,1.193631763E1
1.086431950E1,6.346470805E0,-1.196404993E1,1.195846525E0,1.359581668E1
1.087425550E1,7.237191199E0,-1.335294608E1,3.021538748E0,1.548572897E1
1.088419050E1,8.632484204E0,-1.423227142E1,4.725516792E0,1.730340551E1
1.089412650E1,9.862316208E0,-1.488356119E1,6.462763154E0,1.898823273E1
1.090406150E1,1.154426194E1,-1.505307431E1,8.338411941E0,2.072182771E1
1.091399650E1,1.362040123E1,-1.488975690E1,1.081214727E1,2.289372663E1
1.092393250E1,1.372857004E1,-1.458437554E1,1.354525281E1,2.417956822E1
1.093386750E1,1.176896810E1,-1.340410454E1,1.558149421E1,2.368462772E1
1.094380350E1,8.643542458E0,-1.190738573E1,1.605408957E1,2.177683294E1
1.095373850E1,5.110750070E0,-1.082629520E1,1.527514572E1,1.940769205E1
1.096367350E1,2.298206597E0,-9.711851562E0,1.391864431E1,1.712689329E1
1.097360950E1,6.440772361E-1,-8.170623164E0,1.229814463E1,1.477898101E1
1.098354450E1,-2.409649265E-1,-6.544930567E0,1.024486795E1,1.215942020E1
1.099348050E1,-3.136715448E-1,-5.318900422E0,7.689540573E0,9.355112280E0
1.100341550E1,3.601715273E-1,-4.096218393E0,5.290384721E0,6.700514842E0
1.101335050E1,1.005277873E0,-2.778415030E0,3.602229243E0,4.658994441E0
1.102328650E1,1.734981735E0,-1.825577910E0,2.673823252E0,3.673176706E0
1.103322150E1,2.518134996E0,-9.671627980E-1,2.212769713E0,3.488947913E0
1.104315650E1,2.882348118E0,-4.664563662E-1,1.806564226E0,3.433538484E0
1.105309250E1,3.065439059E0,-4.016522598E-1,1.331523563E0,3.366184213E0
1.106302750E1,3.040228204E0,-5.771459126E-1,9.372423032E-1,3.233343172E0
1.107296350E1,2.941865757E0,-8.423376077E-1,7.425520952E-1,3.148887167E0
1.108289850E1,2.972550191E0,-1.045340656E0,7.325931175E-1,3.235040092E0
1.109283350E1,3.374173214E0,-1.068228412E0,6.874137287E-1,3.605370225E0
1.110276950E1,3.492837194E0,-1.006628580E0,6.187419815E-1,3.687282793E0
1.111270450E1,3.651128923E0,-9.274473399E-1,6.606581855E-1,3.824574514E0
1.112264050E1,3.900516179E0,-9.115668869E-1,8.292229608E-1,4.090549030E0
1.113257550E1,4.268691959E0,-9.079135466E-1,1.217630181E0,4.530856576E0
1.114251050E1,4.663829836E0,-1.028558562E0,2.284078116E0,5.293982839E0
1.115244650E1,4.812260821E0,-1.321133938E0,3.682644246E0,6.202025293E0
1.116238150E1,4.780077161E0,-1.679119191E0,5.086708074E0,7.179357767E0
1.117231750E1,4.431586032E0,-2.176179884E0,5.920491790E0,7.708886864E0
1.118225250E1,4.216723076E0,-2.758159105E0,5.962733830E0,7.806560694E0
1.119218750E1,4.051638637E0,-3.277144518E0,5.504978705E0,7.580253451E0
1.120212350E1,3.230110100E0,-3.700187062E0,4.536324867E0,6.686048074E0
1.121205850E1,1.868356140E0,-4.239283973E0,3.088554271E0,5.567894643E0
1.122199450E1,6.338650739E-1,-4.551992481E0,1.660202864E0,4.886583063E0
1.123192950E1,-1.903982055E-1,-4.220033770E0,9.519863498E-1,4.330267255E0
1.124186450E1,-5.431674501E-1,-3.949350954E0,9.181536292E-1,4.090893536E0
1.125180050E1,-3.921882489E-1,-4.079808183E0,7.445511121E-1,4.165693554E0
1.126173550E1,-3.357363054E-1,-4.205715693E0,1.223576653E0,4.392937876E0
1.127167150E1,-6.436942434E-1,-4.264398934E0,1.913090848E0,4.717982316E0
1.128160650E1,-1.131364308E0,-4.709771410E0,2.240963964E0,5.337026458E0
1.129154150E1,-1.479465136E0,-5.320960397E0,1.926662820E0,5.849227834E0
1.130147750E1,-1.439829200E0,-5.821824703E0,1.188690995E0,6.113897062E0
1.131141250E1,-1.099488797E0,-6.105514650E0,4.661821318E-1,6.221214554E0
1.132134850E1,-5.706987727E-1,-6.364484907E0,-3.571514404E-1,6.399993936E0
1.133128350E1,-3.746822700E-1,-6.467589446E0,-1.221437303E0,6.592572269E0
1.134121887E1,-7.076145431E-1,-6.594635993E0,-2.299822475E0,7.019909233E0
1.135115488E1,-6.984358764E-1,-6.433404869E0,-3.164160524E0,7.203361903E0
1.136108987E1,-4.130426359E-1,-6.125370040E0,-3.431420672E0,7.033165018E0
1.137102588E1,-2.535247457E-1,-6.129866549E0,-3.120091814E0,6.882914472E0
1.138096087E1,-3.424819458E-1,-6.509431536E0,-2.726630626E0,7.065727661E0
1.139089587E1,-3.650779259E-1,-6.781177375E0,-2.656015264E0,7.291917825E0
1.140083187E1,-1.401332009E-1,-7.061912139E0,-2.719237114E0,7.568651852E0
1.141076687E1,1.586396384E-1,-7.027307147E0,-3.059382805E0,7.666031270E0
1.142070288E1,1.741148794E-1,-7.179293824E0,-4.200316081E0,8.319569159E0
1.143063787E1,4.954053462E-2,-7.659302282E0,-5.693542054E0,9.543782627E0
1.144057287E1,-4.878875810E-1,-8.501976689E0,-6.532884718E0,1.073313676E1
1.145050887E1,-1.424034408E0,-9.476452015E0,-6.268502862E0,1.145098882E1
1.146044387E1,-1.495661631E0,-1.036574393E1,-5.382052106E0,1.177506416E1
1.147037888E1,-1.889352322E-1,-1.013157347E1,-4.616959433E0,1.113556428E1
1.148031487E1,1.776145549E0,-8.454268087E0,-4.833619823E0,9.899152615E0
1.149024988E1,3.416499454E0,-7.029851271E0,-5.467741882E0,9.538735697E0
1.150018587E1,4.985567615E0,-6.345140564E0,-6.293601451E0,1.023357770E1
1.151012087E1,7.086076342E0,-5.391031675E0,-7.487392387E0,1.163343222E1
1.152005588E1,9.291706313E0,-4.320439818E0,-9.356431482E0,1.387605191E1
1.152999187E1,1.004364304E1,-3.915748760E0,-1.120490709E1,1.554856253E1
1.153992688E1,9.648325657E0,-4.343281966E0,-1.266789916E1,1.650545229E1
1.154986287E1,9.410970216E0,-5.352001510E0,-1.306096770E1,1.696464435E1
1.155979788E1,1.015840751E1,-5.250517820E0,-1.102847437E1,1.588673747E1
1.156973288E1,1.028455534E1,-4.369561984E0,-9.226576517E0,1.449119956E1
1.157966887E1,1.010338171E1,-4.215351904E0,-8.844828179E0,1.407403635E1
1.158960388E1,1.006185361E1,-4.004086155E0,-8.632782996E0,1.384913522E1
1.159953987E1,9.623970834E0,-3.903727469E0,-7.894306557E0,1.304530486E1
1.160947488E1,8.440883811E0,-4.894492846E0,-7.362672447E0,1.222348253E1
1.161940987E1,7.293823822E0,-6.124476585E0,-7.373166445E0,1.204461136E1
1.162934588E1,6.328502312E0,-6.812889749E0,-6.840336580E0,1.154363949E1
1.163928088E1,5.858877924E0,-7.462377999E0,-5.383364221E0,1.090844381E1
1.164921687E1,5.442943840E0,-8.118606334E0,-4.210954213E0,1.064281644E1
1.165915188E1,4.773752228E0,-8.372873676E0,-3.422130908E0,1.022764410E1
1.166908687E1,3.774478276E0,-8.775638076E0,-2.852041415E0,9.969586257E0
1.167902288E1,3.190069537E0,-9.526949154E0,-2.641862956E0,1.038839466E1
1.168895787E1,3.870680176E0,-9.516018369E0,-2.450775948E0,1.056139543E1
1.169889388E1,5.249422052E0,-8.740939529E0,-2.320492382E0,1.045682268E1
1.170882888E1,6.866819789E0,-8.888563598E0,-2.108881063E0,1.142834880E1
1.171876387E1,8.129285688E0,-1.013967888E1,-1.002323860E0,1.303468553E1
1.172869988E1,9.083032635E0,-1.156093703E1,4.642291617E-1,1.470959740E1
1.173863487E1,9.827831669E0,-1.310526855E1,1.863530433E0,1.648657286E1
1.174857088E1,1.131850913E1,-1.372295905E1,3.190730857E0,1.807232740E1
1.175850587E1,1.349784359E1,-1.386076155E1,4.564695557E0,1.987835350E1
1.176844087E1,1.508308573E1,-1.451000013E1,6.508298346E0,2.191797268E1
1.177837688E1,1.520005694E1,-1.507442133E1,9.062990718E0,2.324688603E1
1.178831187E1,1.337582155E1,-1.541462403E1,1.162150249E1,2.348579478E1
1.179824788E1,9.083203958E0,-1.579175541E1,1.311378677E1,2.244672663E1
1.180818287E1,4.444634094E0,-1.567944911E1,1.326349654E1,2.101238294E1
1.181811787E1,6.470926452E-1,-1.422900282E1,1.340692173E1,1.956089979E1
1.182805387E1,-2.008866486E0,-1.141704173E1,1.332912218E1,1.766493376E1
1.183798887E1,-2.732345987E0,-8.841109934E0,1.230870236E1,1.539919132E1
1.184792488E1,-1.615383956E0,-6.704726200E0,1.049545038E1,1.255855475E1
1.185785987E1,-1.857701343E-1,-4.755639308E0,8.544561376E0,9.780600436E0
1.186779487E1,1.297974871E0,-3.080670471E0,6.679203689E0,7.469071644E0
1.187773087E1,2.581739838E0,-1.659207083E0,4.742978917E0,5.649265239E0
1.188766587E1,3.109498998E0,-9.642467916E-1,2.836094011E0,4.317659683E0
1.189760188E1,3.412483587E0,-9.344827098E-1,1.433042336E0,3.817317448E0
1.190753687E1,3.285778517E0,-1.069350493E0,9.906025314E-1,3.594599326E0
1.191747188E1,3.202736360E0,-1.280977015E0,1.221921891E0,3.659441953E0
1.192740787E1,3.027530390E0,-1.219908110E0,1.685851675E0,3.673719087E0
1.193734287E1,2.920791807E0,-1.239626675E0,2.109844684E0,3.810399410E0
1.194727887E1,3.453397724E0,-1.369759383E0,2.590660058E0,4.529207011E0
1.195721387E1,4.190657358E0,-1.372810460E0,2.983260243E0,5.324101739E0
1.196714888E1,4.803422754E0,-1.247662504E0,2.775074515E0,5.685997753E0
1.197708487E1,5.144347587E0,-1.221876867E0,2.127541867E0,5.699449936E0
1.198701987E1,5.893341413E0,-1.287925846E0,1.920166856E0,6.330660846E0
1.199695488E1,7.066924957E0,-9.151319343E-1,2.239798029E0,7.469644571E0
1.200689087E1,7.947272975E0,-7.471852827E-1,2.410745033E0,8.338412631E0
1.201682588E1,7.917879606E0,-1.320125878E0,2.842159621E0,8.515481261E0
1.202676187E1,6.789862829E0,-2.574226166E0,3.677989862E0,8.139808783E0
1.203669688E1,5.154391349E0,-4.161228907E0,4.302127508E0,7.898852909E0
1.204663187E1,3.635501654E0,-5.100415701E0,4.476954578E0,7.698976224E0
1.205656787E1,2.694163669E0,-5.459974440E0,3.900517348E0,7.230758905E0
1.206650288E1,2.000621327E0,-5.538187966E0,2.997596154E0,6.607540719E0
1.207643887E1,1.204127352E0,-5.428353283E0,2.462602819E0,6.081229702E0
1.208637388E1,9.274920711E-1,-5.312831597E0,2.730809339E0,6.045141915E0
1.209630887E1,1.135949695E0,-4.932423441E0,3.123551027E0,5.947751990E0
1.210624488E1,9.724530664E-1,-5.138378749E0,2.561055897E0,5.823023995E0
1.211617988E1,4.693144852E-1,-6.215217186E0,2.069581927E0,6.567522372E0
1.212611587E1,-1.522062394E-1,-6.854244182E0,1.854722772E0,7.102381756E0
1.213605088E1,-3.465331891E-1,-7.237287678E0,9.477725539E-1,7.307303949E0
1.214598587E1,-2.875827304E-1,-7.086454657E0,1.773457584E-1,7.094504560E0
1.215592188E1,-2.438467267E-1,-6.613997878E0,-1.672327065E-1,6.620603895E0
1.216585687E1,-2.958401683E-1,-6.645593893E0,-8.155348483E-1,6.701980057E0
1.217579288E1,-6.195592761E-2,-6.848801594E0,-1.742273798E0,7.067208770E0
1.218572788E1,2.989710599E-1,-6.642155145E0,-2.817426191E0,7.221184045E0
1.219566287E1,2.871821961E-1,-6.275969757E0,-3.768203044E0,7.325955513E0
1.220559888E1,1.248181736E-1,-6.337271381E0,-4.810461048E0,7.957205768E0
1.221553387E1,8.743458509E-2,-6.850430628E0,-5.338130745E0,8.685141591E0
1.222546988E1,8.797679740E-1,-7.003963308E0,-4.946590660E0,8.619643431E0
1.223540487E1,2.284095511E0,-6.427132561E0,-4.258134519E0,8.040947384E0
1.224533987E1,3.033297499E0,-6.301485837E0,-3.959973006E0,8.036852846E0
1.225527588E1,2.668533568E0,-6.662391189E0,-4.018164204E0,8.225215580E0
1.226521087E1,2.431794425E0,-6.805946181E0,-4.102797680E0,8.310684469E0
1.227514688E1,1.735406243E0,-7.080093471E0,-3.764492693E0,8.204313721E0
1.228508187E1,5.431507856E-1,-7.978382501E0,-3.787437167E0,8.848405529E0
1.229501687E1,-6.301251948E-2,-9.403656519E0,-3.387291150E0,9.995322298E0
1.230495287E1,-3.772261012E-1,-1.058375971E1,-2.251014889E0,1.082706503E1
1.231488787E1,-2.123615170E-1,-1.172019881E1,-1.729965701E0,1.184909022E1
1.232482388E1,-2.264673400E-1,-1.251026992E1,-2.176317586E0,1.270017713E1
1.233475887E1,1.022499093E0,-1.230247157E1,-3.594626108E0,1.285759106E1
1.234469350E1,3.982228094E0,-1.055269813E1,-5.950349427E0,1.275242082E1
1.235462950E1,7.407905338E0,-7.885580757E0,-8.574265816E0,1.380498025E1
1.236456450E1,1.064196055E1,-5.167031860E0,-1.091814092E1,1.609830251E1
1.237450050E1,1.486396717E1,-2.427056718E0,-1.279315938E1,1.976089703E1
1.238443550E1,1.853283772E1,3.583245380E-1,-1.499534592E1,2.384229162E1
1.239437050E1,2.032288912E1,1.798658060E0,-1.622323665E1,2.606623103E1
1.240430650E1,1.910284652E1,8.643671389E-1,-1.595562596E1,2.490477616E1
1.241424150E1,1.589809755E1,-1.977310525E0,-1.477546255E1,2.179388804E1
1.242417750E1,1.205033963E1,-4.922390204E0,-1.292509595E1,1.834390133E1
1.243411250E1,8.551615457E0,-7.506401685E0,-1.070332124E1,1.562169257E1
1.244404750E1,6.033949993E0,-9.555737336E0,-8.073919573E0,1.388916289E1
1.245398350E1,5.507509965E0,-1.038704066E1,-4.326558929E0,1.252766506E1
1.246391850E1,5.469200177E0,-9.822724711E0,-9.870487399E-1,1.128593534E1
1.247385450E1,5.365497469E0,-9.174679554E0,-1.276464719E-1,1.062918631E1
1.248378950E1,4.930456438E0,-8.575641081E0,-7.835678279E-1,9.922953148E0
1.249372450E1,3.649207528E0,-8.559085275E0,-1.438376459E0,9.415072127E0
1.250366050E1,2.399551123E0,-9.322005415E0,-1.600382778E0,9.758014941E0
1.251359550E1,1.980858323E0,-9.699885820E0,-1.517457419E0,1.001570076E1
1.252353050E1,2.660625794E0,-9.391287904E0,-1.467583593E0,9.870613948E0
1.253346650E1,3.811423323E0,-8.748574238E0,-1.264662991E0,9.626207531E0
1.254340150E1,5.202049665E0,-8.523014971E0,-1.114359728E0,1.004713404E1
1.255333750E1,7.041055706E0,-9.520179248E0,-6.451896688E-1,1.185860650E1
1.256327250E1,8.860884048E0,-1.116560912E1,6.175987047E-1,1.426770904E1
1.257320850E1,1.085166627E1,-1.231292054E1,2.443299406E0,1.659326324E1
1.258314350E1,1.306475085E1,-1.297296945E1,4.937127526E0,1.906202716E1
1.259307850E1,1.403899404E1,-1.340493718E1,8.319200329E0,2.111858870E1
1.260301450E1,1.401192494E1,-1.274829603E1,1.180326436E1,2.231972540E1
1.261294950E1,1.361832664E1,-1.106047735E1,1.380740220E1,2.232571019E1
1.262288450E1,1.326613481E1,-9.025548658E0,1.435675279E1,2.153061104E1
1.263282050E1,1.238432674E1,-7.626881225E0,1.405229763E1,2.022394459E1
1.264275550E1,1.001111264E1,-7.387012652E0,1.310521358E1,1.807033357E1
1.265269150E1,7.468497695E0,-7.277162765E0,1.130271814E1,1.537813360E1
1.266262650E1,5.018470482E0,-7.234611408E0,8.798119451E0,1.244715044E1
1.267256150E1,2.153582150E0,-7.831426184E0,6.606421056E0,1.046966816E1
1.268249750E1,-5.215833306E-2,-8.051215419E0,5.049905114E0,9.504016618E0
1.269243250E1,-1.073651705E0,-7.299018488E0,4.189176843E0,8.483961427E0
1.270236850E1,-1.354781740E0,-5.893947769E0,3.969339661E0,7.233927786E0
1.271230350E1,-1.309912546E0,-4.512950038E0,4.306972511E0,6.374370646E0
1.272223850E1,-6.787225735E-1,-3.125102293E0,4.758881589E0,5.733575032E0
1.273217450E1,3.695609862E-1,-1.913351049E0,4.732398088E0,5.117917469E0
1.274210950E1,1.142412622E0,-1.285730217E0,4.202434528E0,4.540777989E0
1.275204550E1,1.660691106E0,-1.063990350E0,3.636853823E0,4.137230492E0
1.276198050E1,2.053136340E0,-1.043587076E0,2.970384382E0,3.758673462E0
1.277191550E1,1.461483486E0,-1.539141526E0,1.854967478E0,2.818828650E0
1.278185150E1,3.622174680E-1,-2.292597363E0,4.392507336E-1,2.362233132E0
1.279178650E1,-6.671503490E-1,-2.875492843E0,-8.332703304E-1,3.067228084E0
1.280172250E1,-1.755247600E0,-3.178453458E0,-1.639377128E0,3.983844612E0
1.281165750E1,-2.033236511E0,-3.167605119E0,-1.788712385E0,4.167405055E0
1.282159250E1,-1.247787634E0,-2.916302900E0,-1.473887769E0,3.497733800E0
1.283152850E1,-8.412395006E-1,-1.964485534E0,-7.296643934E-1,2.258162403E0
1.284146350E1,1.190153968E-1,-1.531219134E0,2.436616623E-1,1.555045885E0
1.285139950E1,1.012641857E0,-1.363343233E0,9.370291722E-1,1.939631917E0
1.286133450E1,1.165202145E0,-1.325237514E0,1.049679436E0,2.053235843E0
1.287126950E1,1.402052971E0,-1.429077047E0,7.976806676E-1,2.155065703E0
1.288120550E1,1.740477533E0,-1.376270258E0,1.423014581E-1,2.223427888E0
1.289114050E1,1.408014792E0,-1.691914653E0,-1.083470349E0,2.453362763E0
1.290107650E1,4.150915003E-1,-2.362558714E0,-2.617140051E0,3.550127699E0
1.291101150E1,-8.605961233E-1,-2.979043524E0,-3.393129303E0,4.596591397E0
1.292094650E1,-1.886117057E0,-3.221446865E0,-3.047443083E0,4.818927972E0
1.293088250E1,-2.653103351E0,-3.005581697E0,-2.138639152E0,4.543815153E0
1.294081750E1,-2.470656774E0,-2.527151402E0,-1.850285904E0,3.989260211E0
1.295075350E1,-1.667439963E0,-2.035636209E0,-2.306067301E0,3.498873705E0
1.296068850E1,-1.005091932E0,-1.558430321E0,-2.859910598E0,3.408519251E0
1.297062350E1,-3.776166952E-1,-1.587897364E0,-3.972636029E0,4.294863144E0
1.298055950E1,-4.252767652E-1,-1.825328234E0,-4.462117268E0,4.839749374E0
1.299049450E1,-9.226713341E-1,-1.928742675E0,-3.548024384E0,4.142444656E0
1.300042950E1,-1.649193141E0,-1.766096524E0,-2.755752976E0,3.665120655E0
1.301036550E1,-2.303753558E0,-1.686727588E0,-2.298389615E0,3.665368363E0
1.302030050E1,-2.077313700E0,-1.779111257E0,-1.454763281E0,3.097871087E0
1.303023650E1,-1.860802706E0,-1.319888481E0,-5.962744939E-1,2.358015179E0
1.304017150E1,-2.724955399E0,-3.873844689E-1,-2.514121467E-1,2.763811991E0
1.305010650E1,-2.293153141E0,-9.139712620E-1,-9.583177149E-1,2.648068662E0
1.306004250E1,-4.745956904E-1,-1.665860630E0,-4.004512417E-1,1.777834048E0
1.306997750E1,1.090392868E0,-1.040286323E0,8.530947304E-1,1.731739836E0
1.307991350E1,1.594647390E0,3.524643123E-2,1.750250570E0,2.368020200E0
1.308984850E1,9.482242513E-1,8.639360529E-1,1.990678137E0,2.368187953E0
1.309978350E1,1.038657289E0,8.702586472E-1,1.717631877E0,2.187788459E0
1.310971950E1,6.260420841E-1,9.057477379E-1,1.512523246E0,1.870837841E0
1.311965450E1,5.938990626E-1,6.030847460E-1,1.408687806E0,1.643419801E0
1.312959050E1,1.430496313E0,3.228715539E-1,1.182918624E0,1.884107802E0
1.313952550E1,1.849513049E0,3.310898155E-1,-1.107439256E-1,1.882175125E0
1.314946050E1,1.423700240E0,1.040214402E0,-5.221855938E-2,1.763999760E0
1.315939650E1,6.016627032E-1,1.531282868E0,7.563098627E-1,1.810753942E0
1.316933150E1,-8.352820650E-2,1.432750268E0,3.531162769E-1,1.477985587E0
1.317926750E1,-2.029631411E-1,8.728840470E-1,9.615219891E-2,9.013133981E-1
1.318920250E1,-2.137268418E-1,2.898686993E-1,1.268366325E-1,3.818252966E-1
1.319913750E1,-3.714418893E-1,1.191779494E-2,1.460967761E-1,3.993186433E-1
1.320907350E1,-4.378624584E-1,-3.332912922E-4,3.165197235E-1,5.402854606E-1
1.321900850E1,2.009476789E-1,1.964246383E-1,8.641605860E-1,9.087002402E-1
1.322894450E1,1.221316631E0,4.266043755E-1,1.765735751E0,2.188933153E0
1.323887950E1,1.565860817E0,3.643388379E-1,2.544083769E0,3.009489178E0
1.324881450E1,9.591863188E-1,-1.478877783E-2,2.802044213E0,2.961707088E0
1.325875050E1,-3.399566795E-1,-7.392582124E-1,2.732765817E0,2.851329911E0
1.326868550E1,-8.058805105E-1,-1.217430060E0,2.305642501E0,2.729023029E0
1.327862150E1,-1.206961351E0,-1.364473500E0,1.472787908E0,2.342572914E0
1.328855650E1,-1.740321120E0,-1.027413093E0,4.442521495E-1,2.069216093E0
1.329849150E1,-1.603250399E0,-4.159884632E-1,-3.943561041E-1,1.702637653E0
1.330842750E1,-6.965644750E-1,1.518662238E-1,-6.310081244E-1,9.520696775E-1
1.331836250E1,3.718667991E-1,6.663364166E-1,-1.589828700E-1,7.794643605E-1
1.332829750E1,1.137460323E0,9.430208141E-1,4.788986564E-1,1.553205770E0
1.333823400E1,1.541654075E0,5.954675782E-1,8.852216721E-1,1.874805678E0
1.334816900E1,1.685307007E0,-6.607704520E-2,9.189507508E-1,1.920702050E0
1.335810500E1,1.375458080E0,-4.196026272E-1,8.074116039E-1,1.649201259E0
1.336804000E1,9.252935180E-1,-4.009272051E-1,6.928207952E-1,1.223483295E0
1.337797500E1,4.662324178E-1,-3.801789451E-1,2.058588284E-1,6.358353206E-1
1.338791100E1,1.631542736E-1,-4.478861940E-1,-2.652180076E-1,5.454923934E-1
1.339784600E1,-1.199965779E-1,-4.034888703E-1,-4.007219678E-1,5.811889044E-1
1.340778200E1,-3.266427156E-1,-1.720052040E-1,-1.053486997E-1,3.839005111E-1
1.341771700E1,-3.002720654E-2,2.353872675E-1,5.511024141E-1,6.000188911E-1
1.342765200E1,6.968290615E-1,6.290300113E-1,1.458298507E0,1.734325238E0
1.343758800E1,1.128396554E0,8.450974935E-1,1.786263571E0,2.275567204E0
1.344752300E1,9.186809018E-1,8.611562866E-1,1.120054623E0,1.685255799E0
1.345745900E1,5.640519503E-1,8.547003758E-1,1.685530078E-1,1.037823420E0
1.346739400E1,3.807759458E-1,7.536195588E-1,-5.725500011E-1,1.020169723E0
1.347732900E1,3.156739238E-1,6.913309246E-1,-8.464101934E-1,1.137540632E0
1.348726500E1,1.069648701E-1,5.821476209E-1,-7.411182117E-1,9.484690505E-1
1.349720000E1,-4.425728291E-2,4.725778162E-1,-2.330577368E-1,5.287763309E-1
1.350713600E1,-1.305300263E-1,3.963079047E-1,2.880946541E-1,5.070469138E-1
1.351707100E1,1.156696200E-1,4.222718811E-1,6.644074202E-1,7.956948049E-1
1.352700600E1,4.471132286E-1,5.632687157E-1,7.642807871E-1,1.049431754E0
1.353694200E1,7.458605960E-1,5.975474328E-1,6.516786164E-1,1.156743698E0
1.354687700E1,8.320590797E-1,3.731043988E-1,5.912727857E-1,1.086799297E0
1.355681300E1,5.641151368E-1,-4.530715048E-2,6.183804774E-1,8.382559515E-1
1.356674800E1,-7.887776971E-2,-2.990529209E-1,5.147491050E-1,6.005172713E-1
1.357668300E1,-6.085858065E-1,-3.438794303E-1,3.128026485E-1,7.658167166E-1
1.358661900E1,-8.375436949E-1,-3.443793672E-1,2.591234547E-1,9.419243888E-1
1.359655400E1,-8.224181905E-1,-3.593675351E-1,2.963450754E-1,9.451651227E-1
1.360649000E1,-5.635747444E-1,-4.151692683E-1,1.300379831E-1,7.119634056E-1
1.361642500E1,-1.601894429E-1,-5.359943783E-1,-2.546848333E-1,6.146665727E-1
1.362636000E1,2.995711304E-2,-7.165371019E-1,-5.370299202E-1,8.959486493E-1
1.363629600E1,3.331275702E-2,-7.715430290E-1,-2.620113945E-1,8.154988388E-1
1.364623100E1,-2.469264552E-2,-5.772236806E-1,1.508137250E-1,5.971111152E-1
1.365616600E1,-2.274466024E-1,-6.306748331E-2,4.324741030E-1,4.926898762E-1
1.366610200E1,-3.829699673E-1,3.126810265E-1,-4.505864382E-3,4.944246383E-1
1.367603700E1,-5.465218516E-1,3.671215278E-1,-1.222922350E0,1.388885677E0
1.368597300E1,-3.513062713E-1,1.577789283E-1,-1.327383442E0,1.382120504E0
1.369590800E1,-1.307324861E-1,-1.825810629E-1,-6.823472625E-1,7.183485325E-1
1.370584300E1,-3.316714673E-1,-2.762464410E-1,1.861607283E-1,4.700785840E-1
1.371577900E1,-4.510578699E-1,-2.248576015E-1,3.499488401E-1,6.135783028E-1
1.372571400E1,-7.228892246E-1,-2.482230753E-1,1.520328695E-1,7.792929613E-1
1.373565000E1,-4.669824694E-1,-2.154248732E-1,1.258671641E-1,5.294554238E-1