"Time (s)","Linear Acceleration x (m/s^2)","Linear Acceleration y (m/s^2)","Linear Acceleration z (m/s^2)","Absolute acceleration (m/s^2)"
5.862416641E-3,-1.204121651E0,1.344891760E0,-1.435172185E0,2.306157409E0
1.579841666E-2,-1.302354728E0,1.540520884E0,-2.011625787E0,2.848854285E0
2.573341667E-2,-1.237302699E0,1.617715825E0,-2.651845615E0,3.343681747E0
3.566829165E-2,-1.088402183E0,1.584451016E0,-3.169689066E0,3.707024833E0
4.560429166E-2,-7.987835987E-1,1.358454961E0,-3.341926990E0,3.694851976E0
5.553929164E-2,4.103486775E-1,6.394643676E-1,-3.177517903E0,3.267096684E0
6.547429165E-2,1.248013044E0,2.836525244E-1,-2.352558221E0,2.678157108E0
7.541029164E-2,5.937239385E-1,-2.453515077E-1,-5.614619261E-1,8.531969127E-1
8.534529165E-2,-1.248629779E-1,-7.752472401E-1,6.442929983E-1,1.015732501E0
9.528029166E-2,4.869971597E-1,-2.426269975E-1,1.145089477E0,1.267779162E0
1.052162916E-1,7.406707536E-1,4.648562756E-1,1.464064447E0,1.705335517E0
1.151512917E-1,6.143501379E-2,2.260837626E-1,1.533622339E0,1.551414067E0
1.250862917E-1,-3.593481297E-1,-7.696242651E-1,8.820004410E-1,1.224490656E0
1.350222917E-1,-3.084948220E-1,-1.165995320E0,5.951547521E-1,1.344962200E0
1.449572917E-1,4.836707152E-3,-1.140419599E0,9.560150814E-1,1.488134769E0
1.548922916E-1,5.032668545E-1,-1.270590313E0,1.382535549E0,1.943986064E0
1.648272916E-1,9.525168385E-1,-1.271474412E0,1.921554108E0,2.493252033E0
1.747632917E-1,1.369945178E0,-1.485722241E0,2.152078246E0,2.952212924E0
1.846982916E-1,1.483591662E0,-1.965923072E0,1.366071544E0,2.816389392E0
1.946332917E-1,1.605154691E0,-2.557404311E0,3.115642083E-1,3.035442414E0
2.045692916E-1,1.966034900E0,-2.725842714E0,-4.314075708E-2,3.361156476E0
2.145042917E-1,1.704161208E0,-1.756368511E0,-2.886998409E-1,2.464212525E0
2.244392917E-1,8.602345461E-1,-1.493025121E-1,-8.100650704E-1,1.191008032E0
2.343752916E-1,2.147274466E-1,9.105494714E-1,-1.284533876E0,1.589098957E0
2.443102917E-1,-5.653000385E-1,1.278841319E0,-2.451509482E0,2.822215086E0
2.542452917E-1,-1.743762645E0,1.063286053E0,-3.812580487E0,4.325165357E0
2.641812917E-1,-2.338964906E0,5.689440233E-1,-3.542284757E0,4.282783608E0
2.741162917E-1,-1.570957250E0,5.195704266E-1,-1.473372629E0,2.215555690E0
2.840512916E-1,4.431724611E-1,7.118160599E-1,3.128318846E-1,8.949568266E-1
2.939872917E-1,1.930647405E0,4.363002285E-1,6.588356084E-1,2.086102023E0
3.039222916E-1,2.352387190E0,2.757672617E-1,1.594483083E-1,2.373856953E0
3.138572917E-1,1.768736834E0,1.079020618E0,1.727990220E0,2.697900236E0
3.237922917E-1,1.950505134E0,1.669201729E0,3.031539241E0,3.972522481E0
3.337282916E-1,1.935963109E0,1.855527933E0,2.085087866E0,3.396840956E0
3.436632917E-1,1.559701798E0,2.168353094E0,2.031214544E0,3.355630695E0
3.535982917E-1,9.407944867E-1,1.850584112E0,2.062205372E0,2.926165891E0
3.635342917E-1,2.803225350E-1,1.135720191E0,1.600492852E0,1.982427412E0
3.734692917E-1,-1.323137194E-2,3.632451162E-1,6.279020834E-1,7.255226461E-1
3.834042916E-1,8.841583559E-1,1.065196339E0,-5.745485795E-1,1.498827978E0
3.933402917E-1,1.938752377E0,1.921202690E0,-4.673217541E-1,2.769146110E0
4.032752916E-1,2.467743106E0,1.939586921E0,5.508468908E-1,3.186720220E0
4.132102916E-1,2.793927400E0,1.692708120E0,2.405337528E0,4.056715386E0
4.231462917E-1,2.288784540E0,4.744959953E-1,8.280720388E0,8.604301904E0
4.330812916E-1,1.458860279E0,-6.537191485E-1,7.107176605E0,7.284749915E0
4.430162917E-1,8.901559912E-1,-8.103574312E-1,6.666831565E0,6.774636519E0
4.529522916E-1,4.041269477E-1,-5.761802450E-2,7.570485415E0,7.581483222E0
4.628872917E-1,4.139568481E-1,-8.335916349E-1,7.149512785E0,7.209838303E0
4.728222917E-1,5.982059024E-1,-2.002002732E0,6.469393312E0,6.798449460E0
4.827572916E-1,3.792697030E-1,-2.863068094E0,7.342416523E0,7.889999037E0
4.926932917E-1,-3.152395488E-1,-4.007305340E0,8.502473702E0,9.404782354E0
5.026282917E-1,-1.023449996E0,-3.973191514E0,6.162137332E0,7.403082953E0
5.125632916E-1,-1.376193805E0,-3.591601344E0,5.967557198E0,7.099665380E0
5.224992917E-1,-1.510394421E0,-4.479213065E0,4.778988410E0,6.721857720E0
5.324342916E-1,-1.723960172E0,-5.539132876E0,3.628699588E0,6.842623210E0
5.423692917E-1,-2.018540850E0,-6.011741098E0,2.459199155E0,6.801705571E0
5.523052916E-1,-2.472146937E0,-5.756556913E0,1.110236564E0,6.362553198E0
5.622402916E-1,-3.044729390E0,-5.695532447E0,5.543476188E-1,6.482034263E0
5.721752917E-1,-3.394469192E0,-6.147055609E0,6.924541748E-1,7.056075860E0
5.821112916E-1,-3.246428509E0,-6.619701837E0,9.346043319E-1,7.431906602E0
5.920462917E-1,-2.842406958E0,-6.864368636E0,1.237210606E0,7.531900435E0
6.019812917E-1,-2.547090408E0,-7.252228484E0,1.286713718E0,7.793466476E0
6.119172917E-1,-2.407834289E0,-7.676675529E0,8.530760193E-1,8.090534706E0
6.218522917E-1,-2.634819400E0,-8.052647402E0,3.528794646E-3,8.472745476E0
6.317872916E-1,-2.940190530E0,-8.578625500E0,-1.041633521E0,9.128117890E0
6.417232917E-1,-3.338775633E0,-8.971803390E0,-2.373509964E0,9.862769811E0
6.516582917E-1,-2.618922867E0,-9.196565682E0,-3.501988086E0,1.018329504E1
6.615932916E-1,-1.831560050E0,-9.110805740E0,-3.862226856E0,1.006370656E1
6.715292917E-1,-1.731293604E0,-9.119131005E0,-3.847957604E0,1.004801998E1
6.814642916E-1,-1.877918384E0,-9.582028756E0,-3.776136254E0,1.046905237E1
6.913992917E-1,-2.196153388E0,-1.055981419E1,-3.808194491E0,1.143831765E1
7.013342917E-1,-2.316779108E0,-1.157380792E1,-4.018944223E0,1.246885752E1
7.112702916E-1,-1.800308583E0,-1.212080325E1,-4.411252924E0,1.302359915E1
7.212052917E-1,-1.038570457E0,-1.190624786E1,-4.967385698E0,1.294265380E1
7.311402917E-1,3.469714379E-1,-1.071762119E1,-6.089276932E0,1.233154843E1
7.410762917E-1,1.896072819E0,-9.198168989E0,-7.837363447E0,1.223215724E1
7.510112917E-1,3.110094829E0,-8.322019272E0,-9.707090759E0,1.315888694E1
7.609462916E-1,4.190388386E0,-7.317017387E0,-1.102110805E1,1.387670425E1
7.708822917E-1,5.099434538E0,-6.771139460E0,-1.129228320E1,1.411978123E1
7.808172916E-1,5.767194752E0,-7.003258719E0,-1.086504353E1,1.415469317E1
7.907522917E-1,6.134792828E0,-7.925752882E0,-1.045631730E1,1.448405376E1
8.006882917E-1,6.331745178E0,-8.561811832E0,-9.901886655E0,1.454107899E1
8.106232916E-1,7.658511153E0,-8.017695086E0,-1.034201710E1,1.516224078E1
8.205582917E-1,1.109663537E1,-5.588396838E0,-1.176477331E1,1.711068049E1
8.304942916E-1,1.422054775E1,-2.535814345E0,-1.346043661E1,1.974430770E1
8.404292917E-1,1.527337986E1,-1.796011756E0,-1.549058989E1,2.182796751E1
8.503642917E-1,1.578092636E1,-2.197214365E0,-1.652562073E1,2.295564263E1
8.602992916E-1,1.523947186E1,-3.376084085E0,-1.680628942E1,2.293666956E1
8.702352917E-1,1.364077644E1,-5.816128346E0,-1.714416844E1,2.266761219E1
8.801702916E-1,1.197659337E1,-8.745404463E0,-1.581289426E1,2.167875718E1
8.901052916E-1,9.663536019E0,-1.020637807E1,-1.220773498E1,1.861673642E1
9.000412917E-1,7.671078574E0,-1.093745544E1,-8.927397881E0,1.606772576E1
9.099762916E-1,7.374466866E0,-1.072824908E1,-6.705178775E0,1.464368507E1
9.199112917E-1,7.248386278E0,-1.004616202E1,-5.230551918E0,1.344704980E1
9.298472916E-1,8.443233222E0,-8.910557315E0,-3.200360051E0,1.268576065E1
9.397822917E-1,1.074004760E1,-6.559253907E0,-1.517700956E0,1.267579782E1
9.497172917E-1,1.185942804E1,-5.473563370E0,-1.700071811E0,1.317179462E1
9.596532916E-1,1.269095356E1,-5.717409804E0,-3.266355528E0,1.429748773E1
9.695882917E-1,1.312288270E1,-7.613993962E0,-5.553106552E0,1.615611175E1
9.795232917E-1,1.352344270E1,-1.200683751E1,-5.677866254E0,1.895483618E1
9.894592917E-1,1.298183149E1,-1.793753854E1,-1.010366120E0,2.216538015E1
9.993942917E-1,1.190910832E1,-2.179517826E1,7.080504531E0,2.582615342E1
1.009329292E0,1.072071787E1,-2.227157197E1,1.522944739E1,2.903261575E1
1.019265292E0,1.149155397E1,-1.880987295E1,2.351877137E1,3.223351889E1
1.029200458E0,1.301497584E1,-1.286521930E1,3.115165652E1,3.612933943E1
1.039135458E0,1.218649672E1,-9.286180109E0,3.203238986E1,3.550799690E1
1.049071458E0,9.694720389E0,-8.083159928E0,2.618812355E1,2.907134143E1
1.059006458E0,5.723349990E0,-8.121498367E0,1.854529580E1,2.103909378E1
1.068941458E0,8.525351518E-1,-8.684896891E0,1.038569113E1,1.356528033E1
1.078877458E0,-2.169850273E0,-8.873785345E0,4.462522188E0,1.016692780E1
1.088812458E0,-1.842603248E0,-8.270692998E0,2.881047990E0,8.949859603E0
1.098747458E0,-7.796461004E-1,-6.598367102E0,3.283141130E0,7.411161321E0
1.108682458E0,-3.285801905E-1,-4.471651738E0,4.031956324E0,6.029950747E0
1.118618458E0,3.012239921E-1,-2.994279029E0,4.897940949E0,5.748588378E0
1.128553458E0,9.853944165E-1,-2.194227315E0,5.668776172E0,6.157975232E0
1.138488458E0,1.156241287E0,-1.842226102E0,5.814257237E0,6.207759511E0
1.148424458E0,7.021207917E-1,-2.011425812E0,5.121993681E0,5.547398190E0
1.158359458E0,1.374417275E-1,-2.408835332E0,3.988812643E0,4.661759774E0
1.168294458E0,-9.253686547E-2,-2.688648575E0,2.752338202E0,3.848734832E0
1.178230458E0,-2.832765484E-1,-2.825692692E0,1.896285073E0,3.414774058E0
1.188165458E0,-6.825805664E-2,-2.762150415E0,1.764210066E0,3.278196338E0
1.198100458E0,4.140618056E-1,-2.589507279E0,2.512230477E0,3.631569509E0
1.208036458E0,9.720943397E-1,-2.458375867E0,3.381136079E0,4.291929693E0
1.217971458E0,1.635591933E0,-2.215724019E0,3.966313727E0,4.828689106E0
1.227906458E0,2.200845779E0,-2.101667061E0,4.329179066E0,5.291740542E0
1.237842458E0,2.334805489E0,-2.223241199E0,4.709056295E0,5.706954467E0
1.247777458E0,2.258466581E0,-2.611106309E0,4.988953153E0,6.066976266E0
1.257712458E0,2.383260781E0,-2.942472698E0,5.356622565E0,6.559838628E0
1.267648458E0,2.707812824E0,-3.159903751E0,5.040332637E0,6.536221775E0
1.277583458E0,3.109298438E0,-3.345166932E0,4.272918327E0,6.254255320E0
1.287518458E0,3.216427031E0,-3.386548262E0,3.390793340E0,5.771619482E0
1.297453458E0,3.193236389E0,-3.221918736E0,2.197186006E0,5.040351706E0
1.307389458E0,3.146082687E0,-2.576827592E0,8.918676174E-1,4.163328544E0
1.317324458E0,2.886875618E0,-1.928750861E0,-1.325090895E-1,3.474433676E0
1.327259458E0,2.085469689E0,-1.747263227E0,-7.397044281E-1,2.819445912E0
1.337195458E0,1.186274925E0,-2.139208524E0,-8.442128829E-1,2.587693317E0
1.347130458E0,8.603850389E-1,-2.442911736E0,-3.657369071E-1,2.615691811E0
1.357065458E0,5.864692980E-1,-3.020007362E0,-3.918346386E-1,3.101277977E0
1.367001458E0,1.093452716E-1,-3.938979748E0,-3.949472576E-1,3.960240041E0
1.376936458E0,-2.833484691E-1,-4.629073402E0,-2.606229731E-1,4.645054493E0
1.386871458E0,-9.753623486E-2,-4.824045299E0,-3.892906612E-1,4.840710029E0
1.396807458E0,6.284324259E-1,-4.780668899E0,-9.853624029E-1,4.921449127E0
1.406742458E0,9.521284372E-1,-4.733721605E0,-1.902167079E0,5.189692514E0
1.416677458E0,8.438824421E-1,-4.595471792E0,-3.462038739E0,5.815170746E0
1.426613458E0,2.204587412E-1,-4.583534117E0,-5.291070015E0,7.003771053E0
1.436548458E0,-6.498455143E-1,-4.959026518E0,-6.539361094E0,8.232708347E0
1.446483458E0,-9.982922047E-1,-5.504343113E0,-6.717405303E0,8.741734063E0
1.456419458E0,-1.195757940E0,-6.062385587E0,-6.231284165E0,8.775605871E0
1.466354458E0,-1.025068944E0,-6.706716008E0,-5.503216354E0,8.735914159E0
1.476289458E0,-6.485129339E-1,-7.074032832E0,-5.018301498E0,8.697462817E0
1.486225458E0,-2.327355552E-1,-7.666988447E0,-4.897676362E0,9.100775320E0
1.496160458E0,3.374989486E-1,-7.873990991E0,-5.192174302E0,9.437812969E0
1.506095458E0,7.188876826E-1,-7.795069367E0,-6.267920480E0,1.002829662E1
1.516030458E0,8.879289329E-1,-8.197944279E0,-7.670856965E0,1.126218250E1
1.525966458E0,1.721629618E0,-8.302566755E0,-8.191156247E0,1.178947259E1
1.535901458E0,3.215137135E0,-7.674634851E0,-8.102563328E0,1.161415771E1
1.545836458E0,5.505841169E0,-6.861888832E0,-8.422724698E0,1.217957703E1
1.555772458E0,8.116181493E0,-4.871172103E0,-9.532743745E0,1.343405832E1
1.565707458E0,1.073385072E1,-2.699059542E0,-1.134316216E1,1.584827440E1
1.575642458E0,1.308594701E1,-9.834611077E-1,-1.286913927E1,1.837998777E1
1.585578458E0,1.432841017E1,-5.472236636E-1,-1.390482149E1,1.997365396E1
1.595513458E0,1.582529971E1,-1.226345310E0,-1.277981369E1,2.037811748E1
1.605448458E0,1.625807202E1,-1.518261119E0,-9.834177067E0,1.906150732E1
1.615384458E0,1.482651693E1,-3.266039486E0,-7.553324422E0,1.695716155E1
1.625319458E0,1.384230306E1,-4.770421946E0,-5.076328096E0,1.549630235E1
1.635254458E0,1.190012232E1,-5.438590003E0,-2.782615377E0,1.337662591E1
1.645190458E0,9.674076210E0,-6.130455363E0,-2.334654192E0,1.168849193E1
1.655125458E0,8.115482166E0,-6.224244702E0,-2.799126452E0,1.060364946E1
1.665060458E0,6.545801218E0,-5.879729095E0,-3.842029989E0,9.601037561E0
1.674996458E0,5.500253570E0,-5.159021174E0,-5.965636387E0,9.615461836E0
1.684931458E0,5.562370881E0,-4.133694076E0,-7.745749857E0,1.039346128E1
1.694866458E0,6.627152359E0,-3.680683674E0,-8.240820158E0,1.119721830E1
1.704802458E0,8.400791207E0,-3.910471940E0,-7.363741318E0,1.183595243E1
1.714737458E0,9.192997127E0,-5.154510047E0,-5.663661028E0,1.196483290E1
1.724672458E0,8.992389683E0,-7.689768029E0,-3.723960379E0,1.240417210E1
1.734608458E0,8.697671303E0,-1.031345111E1,-1.115033327E0,1.353735791E1
1.744543458E0,9.236587535E0,-1.155821574E1,1.735995643E0,1.489699907E1
1.754478458E0,1.108817094E1,-1.154602312E1,4.337221327E0,1.658522455E1
1.764413458E0,1.357993616E1,-1.070200210E1,6.846915867E0,1.859644514E1
1.774349458E0,1.626590262E1,-9.124085936E0,9.133178941E0,2.076640291E1
1.784284458E0,1.801232092E1,-7.607778956E0,1.031227115E1,2.210576716E1
1.794219458E0,1.793548266E1,-7.627622067E0,1.059884436E1,2.218552813E1
1.804155458E0,1.491965723E1,-9.969686290E0,1.095397032E1,2.102332710E1
1.814090458E0,9.092085879E0,-1.338982447E1,1.145589297E1,1.982904205E1
1.824025458E0,3.003916994E0,-1.599135128E1,1.280372764E1,2.070464379E1
1.833961458E0,-3.415218914E0,-1.657607402E1,1.530114595E1,2.281567482E1
1.843896458E0,-8.108140987E0,-1.419282376E1,1.682743763E1,2.345934470E1
1.853831458E0,-8.390516480E0,-1.072145462E1,1.629338336E1,2.123263284E1
1.863767458E0,-5.649184492E0,-7.698207901E0,1.396772584E1,1.691960565E1
1.873702458E0,-2.472444853E0,-5.407109179E0,1.021746088E1,1.182143477E1
1.883637458E0,6.362969309E-1,-3.526885530E0,6.405579139E0,7.339975438E0
1.893573458E0,3.210276344E0,-1.979581876E0,3.422918820E0,5.093230003E0
1.903508458E0,4.739225589E0,-1.129010219E0,1.316670173E0,5.046636861E0
1.913443458E0,4.886281893E0,-9.240846062E-1,5.822429305E-1,5.006864281E0
1.923379458E0,4.092280878E0,-1.026308554E0,1.019134020E0,4.340357841E0
1.933314458E0,3.059792987E0,-1.421058176E0,1.858472006E0,3.851708408E0
1.943249458E0,2.266512349E0,-1.893783926E0,2.761950147E0,4.043743860E0
1.953185458E0,1.623474163E0,-2.180757084E0,3.534024396E0,4.458777663E0
1.963120458E0,1.149063245E0,-2.473022557E0,4.062709755E0,4.893035608E0
1.973055458E0,1.146726698E0,-2.662392238E0,4.283141599E0,5.171906467E0
1.982991458E0,1.766806376E0,-2.455108443E0,4.543845556E0,5.458543274E0
1.992926458E0,2.636194373E0,-2.159003688E0,4.816142203E0,5.899664686E0
2.002861458E0,3.340883262E0,-2.052644590E0,4.990434837E0,6.346596777E0
2.012796458E0,3.657276685E0,-1.988946192E0,5.209810674E0,6.668860995E0
2.022732458E0,3.742035000E0,-2.020545130E0,5.488690116E0,6.943424786E0
2.032667167E0,3.814278519E0,-2.161185284E0,5.686058203E0,7.179881638E0
2.042602167E0,3.782592457E0,-2.379765900E0,5.843022029E0,7.356099365E0
2.052538167E0,3.399181756E0,-2.777026316E0,5.697504712E0,7.192209098E0
2.062473167E0,2.723960495E0,-3.390291649E0,5.197802832E0,6.777255531E0
2.072408167E0,2.032566420E0,-4.001298203E0,4.552688885E0,6.392862398E0
2.082344167E0,2.014754632E0,-4.254147010E0,3.865954456E0,6.091190924E0
2.092279167E0,2.690199257E0,-3.911424159E0,2.998134098E0,5.614732324E0
2.102214167E0,3.197228867E0,-3.417847238E0,2.016107093E0,5.095943483E0
2.112150167E0,3.081797814E0,-2.824152535E0,1.034788771E0,4.306286464E0
2.122085167E0,2.648599826E0,-2.430802152E0,3.413534331E-1,3.611149721E0
2.132020167E0,2.101522050E0,-2.420561923E0,3.344607353E-3,3.205546153E0
2.141956167E0,1.662484447E0,-2.478044146E0,-2.458602154E-1,2.994161748E0
2.151891167E0,1.159733829E0,-2.665196562E0,-7.750740894E-1,3.008154769E0
2.161826167E0,5.478379136E-1,-3.193017703E0,-1.690110787E0,3.654033785E0
2.171762167E0,2.701869714E-1,-3.388724595E0,-2.267183025E0,4.086144179E0
2.181697167E0,-1.735085231E-1,-3.696384033E0,-2.315414953E0,4.365146794E0
2.191632167E0,-3.524777609E-1,-4.329063876E0,-2.123990415E0,4.834911571E0
2.201568167E0,-5.820353544E-1,-4.892515610E0,-1.825570309E0,5.254348780E0
2.211503167E0,-8.539069086E-1,-5.304026860E0,-1.682558523E0,5.629641296E0
2.221438167E0,-6.278705084E-1,-5.614689428E0,-1.651684055E0,5.886171843E0
2.231373167E0,1.169302797E-1,-5.439381716E0,-1.757387681E0,5.717425785E0
2.241309167E0,5.465661442E-1,-5.110112139E0,-2.286648991E0,5.625010598E0
2.251244167E0,5.408399659E-1,-5.391816956E0,-3.053801345E0,6.220120627E0
2.261179167E0,4.779239255E-1,-6.001118461E0,-3.776635606E0,7.106673664E0
2.271115167E0,5.653164107E-1,-6.503912934E0,-4.237804043E0,7.783280106E0
2.281050167E0,4.306187814E-1,-6.965590956E0,-4.779163241E0,8.458444963E0
2.290985167E0,5.549931514E-1,-7.645620382E0,-5.291013297E0,9.314416253E0
2.300921167E0,9.796197063E-1,-7.710363092E0,-5.867501982E0,9.738425607E0
2.310856167E0,1.132707413E0,-7.819489093E0,-6.891711971E0,1.048442319E1
2.320791167E0,1.691035817E0,-7.853516380E0,-8.140785992E0,1.143720762E1
2.330727167E0,2.649050061E0,-6.802576430E0,-9.414689046E0,1.191339088E1
2.340662167E0,3.569428117E0,-6.105228721E0,-1.069029481E1,1.281784061E1
2.350597167E0,4.968151683E0,-5.593156471E0,-1.135872277E1,1.360097473E1
2.360533167E0,6.664988523E0,-4.327344795E0,-1.162678721E1,1.408297432E1
2.370468167E0,7.722651601E0,-4.126079831E0,-1.178457900E1,1.468128689E1
2.380403167E0,8.271099964E0,-5.026657169E0,-1.163969552E1,1.513806093E1
2.390339167E0,8.633324448E0,-5.515758047E0,-1.104803682E1,1.506708317E1
2.400274167E0,9.686676959E0,-5.283263982E0,-1.135810765E1,1.583512545E1
2.410209167E0,1.186219026E1,-3.985521538E0,-1.240830149E1,1.762276612E1
2.420145167E0,1.280467722E1,-3.025946379E0,-1.294172193E1,1.845546739E1
2.430080167E0,1.221109596E1,-3.954034282E0,-1.366588321E1,1.874837634E1
2.440015167E0,1.170386403E1,-4.574979056E0,-1.296064118E1,1.805239836E1
2.449951167E0,1.097743637E1,-5.438740861E0,-1.119861665E1,1.659798260E1
2.459886167E0,9.515811962E0,-7.213235157E0,-9.478754064E0,1.524559665E1
2.469821167E0,7.899093087E0,-8.659061553E0,-7.713457439E0,1.403112413E1
2.479756167E0,6.516261669E0,-9.382993628E0,-6.472228042E0,1.312981231E1
2.489692167E0,5.841730964E0,-9.594759314E0,-5.667612576E0,1.258201332E1
2.499627167E0,6.212066122E0,-9.184506969E0,-5.041630719E0,1.218043407E1
2.509563167E0,7.781358815E0,-8.597298583E0,-4.976876314E0,1.261873154E1
2.519498167E0,9.905973859E0,-8.899124839E0,-4.809577241E0,1.415820519E1
2.529433167E0,1.144873481E1,-9.527466048E0,-4.722056702E0,1.562510664E1
2.539368167E0,1.412685898E1,-9.909313788E0,-4.615688540E0,1.786245294E1
2.549304167E0,1.715022849E1,-1.116275802E1,-3.582947465E0,2.077438366E1
2.559239167E0,1.979678706E1,-1.294082145E1,-1.715325150E0,2.371328695E1
2.569174167E0,2.273466677E1,-1.537140960E1,9.995715755E-1,2.746169058E1
2.579110167E0,2.509047721E1,-1.866470530E1,4.875996641E0,3.164930668E1
2.589045167E0,2.484967717E1,-2.194388698E1,1.041109728E1,3.474811618E1
2.598980167E0,1.962613490E1,-2.398083706E1,1.757530353E1,3.562522998E1
2.608916167E0,1.173066767E1,-2.256768432E1,2.423479567E1,3.513167034E1
2.618851167E0,4.350787452E0,-1.599628399E1,2.819241576E1,3.270508767E1
2.628786167E0,-6.312116075E-1,-1.016204448E1,2.707236757E1,2.892366958E1
2.638722167E0,-1.714908829E0,-8.630812485E0,2.060964125E1,2.240957717E1
2.648657167E0,-8.693523288E-1,-7.212872629E0,1.274267803E1,1.466823603E1
2.658592167E0,4.690732875E-1,-5.149263926E0,6.149083423E0,8.034063459E0
2.668528167E0,1.855105180E0,-4.189591411E0,1.332888011E0,4.771863563E0
2.678463167E0,2.518059567E0,-3.296159078E0,-1.084532204E0,4.287365013E0
2.688398167E0,2.400579064E0,-2.364104717E0,-4.979798752E-1,3.405841293E0
2.698334167E0,1.744515036E0,-1.822955434E0,1.924711019E0,3.173485738E0
2.708269167E0,1.141457187E0,-1.446504089E0,3.851472950E0,4.269559986E0
2.718204167E0,1.209856161E0,-1.086833083E0,4.483704019E0,4.769545032E0
2.728140167E0,1.345610967E0,-9.731614566E-1,4.188811100E0,4.505979419E0
2.738075167E0,1.683444377E0,-1.065523490E0,3.334005474E0,3.883930712E0
2.748010167E0,2.165069590E0,-1.168296492E0,2.447657921E0,3.470370631E0
2.757946167E0,2.620092310E0,-1.154922740E0,1.804781995E0,3.384666645E0
2.767881167E0,3.437390971E0,-9.948142809E-1,1.316527794E0,3.812946049E0
2.777816167E0,4.214031603E0,-8.172407734E-1,1.336555092E0,4.495811867E0
2.787751167E0,4.512963486E0,-8.036688012E-1,2.022444598E0,5.010289924E0
2.797687167E0,4.198592615E0,-1.177690043E0,2.897284538E0,5.235397929E0
2.807622167E0,3.749137613E0,-1.832886930E0,3.733568231E0,5.599557043E0
2.817557167E0,3.535765112E0,-2.254240213E0,4.783072982E0,6.360897815E0
2.827493167E0,3.458790611E0,-2.377695985E0,5.611846511E0,7.007816490E0
2.837428167E0,3.293164719E0,-2.370620270E0,5.688829783E0,6.987671904E0
2.847363167E0,3.356487726E0,-2.421982212E0,5.139828858E0,6.599230893E0
2.857299167E0,3.388097774E0,-2.386789575E0,4.432701388E0,6.068345129E0
2.867234167E0,3.404039623E0,-2.362607245E0,3.802874402E0,5.624166824E0
2.877169167E0,3.238698490E0,-2.537112134E0,3.464098713E0,5.378297666E0
2.887105167E0,2.632474959E0,-2.980379028E0,3.188289059E0,5.096839284E0
2.897040167E0,1.988380181E0,-3.694890069E0,2.901733392E0,5.101561041E0
2.906975167E0,1.257068920E0,-4.240715956E0,2.612838839E0,5.137199713E0
2.916911167E0,2.487007928E-1,-4.305976145E0,2.365516820E0,4.919243079E0
2.926846167E0,-7.075779980E-1,-4.525598150E0,2.263132074E0,5.109155705E0
2.936781167E0,-6.649260682E-1,-4.990565815E0,2.414103674E0,5.583526697E0
2.946717167E0,1.577455992E-1,-4.940614221E0,2.392284788E0,5.491591670E0
2.956652167E0,7.393400735E-1,-4.652595581E0,1.976271767E0,5.108710158E0
2.966587167E0,8.133137834E-1,-4.509138238E0,8.181845140E-1,4.654377816E0
2.976523167E0,5.145883065E-1,-4.513862788E0,-5.288023396E-1,4.573772000E0
2.986458167E0,2.007144481E-1,-4.694993742E0,-1.955238163E0,5.089814220E0
2.996393167E0,-3.249479002E-1,-5.367942774E0,-2.751750557E0,6.040904890E0
3.006329167E0,-9.881057703E-1,-5.638011047E0,-2.109643832E0,6.100337588E0
3.016264167E0,-1.480927817E0,-6.057862766E0,-2.745198167E0,6.813733299E0
3.026199167E0,-1.015775964E0,-7.030662280E0,-3.672432083E0,7.996797503E0
3.036134667E0,-8.501500726E-2,-7.008471512E0,-3.713460242E0,7.931940963E0
3.046069667E0,9.782660758E-1,-6.397915778E0,-3.434679033E0,7.327165269E0
3.056004667E0,2.255473976E0,-5.898106309E0,-3.754000742E0,7.346246828E0
3.065939667E0,3.284118492E0,-5.276237383E0,-4.752672723E0,7.823810657E0
3.075875667E0,3.999779096E0,-4.483080121E0,-5.968790960E0,8.468925889E0
3.085810667E0,4.162397765E0,-3.807617370E0,-7.238879875E0,9.177411783E0
3.095745667E0,3.887251770E0,-4.101071582E0,-7.977783161E0,9.776223126E0
3.105681667E0,3.430214099E0,-5.133514450E0,-8.492075014E0,1.049927033E1
3.115616667E0,3.416785968E0,-5.856408645E0,-9.159382653E0,1.139588694E1
3.125551667E0,3.724950020E0,-5.659532894E0,-9.634085348E0,1.177799498E1
3.135487667E0,4.829058702E0,-5.114813300E0,-1.047659428E1,1.261903922E1
3.145422667E0,5.811166983E0,-4.455623935E0,-1.161806199E1,1.373323017E1
3.155357667E0,6.675594202E0,-3.984307071E0,-1.205404091E1,1.434357568E1
3.165293667E0,7.686280750E0,-3.332969348E0,-1.199959281E1,1.463481548E1
3.175228667E0,8.105591016E0,-2.930305812E0,-1.182800276E1,1.463519549E1
3.185163667E0,7.498153018E0,-3.261672201E0,-1.190583505E1,1.444332761E1
3.195099667E0,6.593323293E0,-3.685829516E0,-1.233078028E1,1.446047695E1
3.205034667E0,5.731898620E0,-4.450098901E0,-1.273580053E1,1.465805776E1
3.214969667E0,5.220878284E0,-5.768034412E0,-1.293309027E1,1.509280010E1
3.224905667E0,5.398810226E0,-6.537921510E0,-1.214492419E1,1.481184503E1
3.234840667E0,6.126892070E0,-6.702660379E0,-1.074388454E1,1.406753417E1
3.244775667E0,8.241393185E0,-6.264459513E0,-8.671984484E0,1.350434484E1
3.254711667E0,1.014902156E1,-5.277767599E0,-6.845709586E0,1.333121185E1
3.264646667E0,1.072098684E1,-4.855008645E0,-5.974155196E0,1.319853015E1
3.274581667E0,1.051399775E1,-4.719364059E0,-5.743892428E0,1.287667838E1
3.284517667E0,9.952260418E0,-4.591468788E0,-5.371730601E0,1.220592326E1
3.294452667E0,9.144351801E0,-4.994740142E0,-4.718873478E0,1.143828509E1
3.304387667E0,8.389934682E0,-5.852255952E0,-4.225787722E0,1.106784467E1
3.314323667E0,7.791587934E0,-6.540788400E0,-3.625564019E0,1.079979027E1
3.324258667E0,7.807462540E0,-7.152736940E0,-2.757607420E0,1.094177845E1
3.334193667E0,9.463794547E0,-7.106370859E0,-1.434998230E0,1.192154075E1
3.344129667E0,1.150824660E1,-6.982988176E0,2.447398889E-1,1.346334882E1
3.354064667E0,1.331143669E1,-7.775131531E0,1.906009870E0,1.553318676E1
3.363999667E0,1.493027577E1,-9.435575885E0,3.345783813E0,1.797602559E1
3.373934667E0,1.574085656E1,-1.134938243E1,4.566094796E0,1.993570336E1
3.383870667E0,1.631030988E1,-1.316236544E1,6.424627029E0,2.192144851E1
3.393805667E0,1.632309072E1,-1.369314995E1,8.255040001E0,2.284931797E1
3.403740667E0,1.558657661E1,-1.382347386E1,9.618826454E0,2.294671267E1
3.413676667E0,1.309996045E1,-1.411802735E1,1.070259618E1,2.203345694E1
3.423611667E0,9.639100505E0,-1.350592444E1,1.206358006E1,2.051468297E1
3.433546667E0,6.154466954E0,-1.158699924E1,1.340226032E1,1.875517520E1
3.443482667E0,3.457370322E0,-9.015510743E0,1.420187057E1,1.717340884E1
3.453417667E0,1.922306644E0,-7.026152907E0,1.345503262E1,1.530032647E1
3.463352667E0,1.265810507E0,-5.845267360E0,1.177164379E1,1.320382612E1
3.473288667E0,1.241611220E0,-4.654068494E0,9.522324591E0,1.067129878E1
3.483223667E0,1.747296556E0,-3.364691370E0,6.691939509E0,7.691309879E0
3.493158667E0,1.732729388E0,-2.673900143E0,4.079670773E0,5.176466625E0
3.503094667E0,1.368160754E0,-2.411982304E0,2.486645693E0,3.724638142E0
3.513029667E0,8.629195145E-1,-2.201043999E0,2.051312886E0,3.130033439E0
3.522964667E0,7.444052240E-1,-2.214713620E0,2.360720349E0,3.321459938E0
3.532900667E0,9.229993629E-1,-2.323773547E0,2.939161420E0,3.858823807E0
3.542835667E0,1.214989432E0,-2.325761601E0,3.406760332E0,4.300160730E0
3.552770667E0,1.938033316E0,-2.134982157E0,3.766983899E0,4.743868637E0
3.562706667E0,2.752900997E0,-1.662719505E0,3.956459122E0,5.098692855E0
3.572641667E0,3.733333758E0,-1.292604203E0,3.815012929E0,5.492078862E0
3.582576667E0,4.762803609E0,-1.065849765E0,3.206612479E0,5.839751496E0
3.592512667E0,5.131554464E0,-8.989942038E-1,2.419976617E0,5.744330128E0
3.602447667E0,4.895481610E0,-1.052501156E0,1.729549964E0,5.297626068E0
3.612382667E0,4.353007055E0,-1.483315820E0,1.824099734E0,4.947346367E0
3.622318667E0,4.039277915E0,-1.935375171E0,2.507046628E0,5.132906187E0
3.632253667E0,3.665117801E0,-2.090977181E0,3.645496885E0,5.576282059E0
3.642188667E0,3.329581178E0,-2.401683018E0,4.674445456E0,6.221304724E0
3.652123667E0,3.419050595E0,-2.487455825E0,5.353044069E0,6.821467896E0
3.662059667E0,4.240970310E0,-2.284459208E0,5.579179287E0,7.371012452E0
3.671994667E0,5.171686243E0,-2.171469952E0,5.161819067E0,7.622728936E0
3.681929667E0,5.003662993E0,-2.178605894E0,4.045929415E0,6.793564000E0
3.691865667E0,4.079807013E0,-2.463227302E0,1.973215427E0,5.158090066E0
3.701800667E0,3.112982184E0,-3.038411474E0,6.643606424E-2,4.350519063E0
3.711735667E0,1.768119661E0,-3.636224370E0,-9.947657490E-1,4.163884448E0
3.721671667E0,1.549307495E-1,-4.251673054E0,-1.153284935E0,4.408037367E0
3.731606667E0,-8.915194157E-1,-4.773027758E0,-1.539712580E-1,4.858014820E0
3.741541667E0,-1.280703365E0,-5.077349020E0,1.167407057E0,5.364933683E0
3.751477667E0,-1.687158528E-1,-5.093393195E0,1.568213005E0,5.332017565E0
3.761412667E0,8.019339323E-1,-4.863915124E0,1.001388159E0,5.030263076E0
3.771347667E0,1.103660785E0,-4.852763899E0,1.123185807E-1,4.977951391E0
3.781283667E0,1.144769927E0,-4.941525802E0,-1.491199182E0,5.287045530E0
3.791218667E0,9.056109130E-1,-5.034224051E0,-2.965321570E0,5.912417013E0
3.801153667E0,4.451906276E-1,-5.598094445E0,-3.144404536E0,6.436158481E0
3.811089667E0,-7.511146116E-1,-6.523063150E0,-3.328433662E0,7.361589276E0
3.821024667E0,-1.175390918E0,-7.892531342E0,-3.643533682E0,8.772054063E0
3.830959667E0,-9.188729829E-1,-8.720618700E0,-3.300890938E0,9.369599728E0
3.840895667E0,2.567787212E-1,-7.753079926E0,-3.398024884E0,8.468928903E0
3.850830667E0,1.809039060E0,-6.017100656E0,-4.453716574E0,7.701539713E0
3.860765667E0,3.134066074E0,-4.935635902E0,-6.333912156E0,8.619821060E0
3.870701667E0,3.442007933E0,-4.400892828E0,-8.501573231E0,1.017310295E1
3.880636667E0,3.061210352E0,-4.508757584E0,-9.803539411E0,1.121647399E1
3.890571667E0,2.465996543E0,-5.862873911E0,-9.544963256E0,1.146999359E1
3.900507667E0,1.956698213E0,-7.369706063E0,-9.030897106E0,1.181940514E1
3.910442667E0,2.128455495E0,-7.999059425E0,-9.038097367E0,1.225571208E1
3.920377667E0,3.350589055E0,-7.793436824E0,-9.318923932E0,1.260184303E1
3.930313667E0,4.906593366E0,-6.823706514E0,-1.011948962E1,1.315453151E1
3.940248667E0,6.380432603E0,-5.806874542E0,-1.102646176E1,1.400044896E1
3.950183667E0,7.417306491E0,-5.192001225E0,-1.177777050E1,1.485561141E1
3.960119667E0,8.139630582E0,-5.155156749E0,-1.245728946E1,1.574843763E1
3.970054667E0,8.816946316E0,-4.865509660E0,-1.311221270E1,1.653305321E1
3.979989667E0,9.058711726E0,-4.821856102E0,-1.327926648E1,1.678241558E1
3.989924667E0,9.066831170E0,-5.203204490E0,-1.303089898E1,1.670584008E1
3.999860667E0,9.145172750E0,-6.283751231E0,-1.216433110E1,1.646483116E1
4.009795667E0,9.301365913E0,-7.901495124E0,-1.093470141E1,1.638648003E1
4.019730667E0,1.000757274E1,-8.240295078E0,-9.309015241E0,1.595969109E1
4.029666667E0,1.052403391E1,-7.843721709E0,-7.809570462E0,1.527313494E1
4.039602292E0,1.062738461E1,-7.229688052E0,-6.946064179E0,1.461018483E1
4.049537292E0,1.047694043E1,-6.600342876E0,-6.314831522E0,1.389992461E1
4.059473292E0,9.841332890E0,-6.051258336E0,-5.782501009E0,1.291924450E1
4.069408292E0,8.983419469E0,-5.692680175E0,-5.775511247E0,1.210227099E1
4.079343292E0,8.269177984E0,-5.421955844E0,-5.826548084E0,1.147717615E1
4.089279292E0,8.163875477E0,-5.310516685E0,-4.961723839E0,1.093019459E1
4.099214292E0,8.450411848E0,-5.885221385E0,-3.388240446E0,1.084091622E1
4.109149292E0,8.563542607E0,-6.273212795E0,-1.661853533E0,1.074472977E1
4.119085292E0,9.288096242E0,-5.970745100E0,-1.069596076E-1,1.104219042E1
4.129020292E0,1.033090271E1,-5.670760717E0,1.060625278E0,1.183258230E1
4.138955292E0,1.143869514E1,-5.206810468E0,2.115179392E0,1.274474816E1
4.148891292E0,1.236729380E1,-4.318728338E0,3.002307256E0,1.343931617E1
4.158826292E0,1.273538772E1,-4.324607421E0,3.813748176E0,1.397987857E1
4.168761292E0,1.177987784E1,-5.938370236E0,4.702267678E0,1.400503782E1
4.178697292E0,9.599738803E0,-8.508868217E0,5.746495024E0,1.405624518E1
4.188632292E0,7.175531725E0,-1.095555375E1,6.671294745E0,1.469757079E1
4.198567292E0,4.446776513E0,-1.304021710E1,8.312911064E0,1.609116446E1
4.208503292E0,1.282882622E0,-1.329162867E1,1.080793260E1,1.717919054E1
4.218438292E0,-8.657112676E-1,-1.151236772E1,1.289535351E1,1.730821217E1
4.228373292E0,-1.454352806E0,-9.185212144E0,1.342968143E1,1.633522597E1
4.238309292E0,-8.036442429E-1,-7.218250898E0,1.225317837E1,1.424392398E1
4.248244292E0,6.348474061E-1,-5.438252034E0,9.692748123E0,1.113224966E1
4.258179292E0,2.049996386E0,-3.737022182E0,6.916505919E0,8.124399922E0
4.268115292E0,3.600524780E0,-2.776752082E0,4.621616448E0,6.483322404E0
4.278050292E0,4.723352737E0,-2.505087519E0,3.182445352E0,6.222015990E0
4.287985292E0,4.869668199E0,-2.497144076E0,2.684706382E0,6.095657903E0
4.297921292E0,4.736443484E0,-2.411719179E0,2.915236952E0,6.062086502E0
4.307856292E0,4.347956230E0,-2.367870324E0,3.552378221E0,6.093514936E0
4.317791292E0,3.430921612E0,-2.653008626E0,4.082560175E0,5.956255154E0
4.327727292E0,2.565858216E0,-2.833569476E0,4.130266730E0,5.627774660E0
4.337662292E0,2.399620705E0,-2.627144637E0,3.688302304E0,5.124806568E0
4.347597292E0,2.371482734E0,-2.271683042E0,2.884066030E0,4.370619072E0
4.357533292E0,2.232868055E0,-2.191981400E0,2.312328792E0,3.890674318E0
4.367468292E0,2.900062843E0,-2.091826197E0,2.526870736E0,4.378490270E0
4.377403292E0,3.585571695E0,-1.743583574E0,3.031760558E0,5.008790287E0
4.387338292E0,4.020164829E0,-1.524351579E0,3.408174189E0,5.486440038E0
4.397274292E0,4.035207961E0,-1.567668337E0,3.752963446E0,5.729329972E0
4.407209292E0,3.686870028E0,-1.778456368E0,4.164683442E0,5.839563839E0
4.417144292E0,3.228177010E0,-1.930928364E0,4.577869919E0,5.925074190E0
4.427080292E0,2.910676709E0,-2.093413131E0,4.699954812E0,5.911344405E0
4.437015292E0,2.919905954E0,-2.312466202E0,4.518686156E0,5.855926510E0
4.446950292E0,3.238810172E0,-2.288224815E0,4.361555392E0,5.894830750E0
4.456886292E0,3.531096110E0,-2.137701112E0,4.074184331E0,5.799774456E0
4.466821292E0,3.629804127E0,-2.050858265E0,3.981822005E0,5.765102263E0
4.476756292E0,3.395127296E0,-2.125449441E0,4.038700795E0,5.688192050E0
4.486692292E0,2.766691362E0,-2.439827330E0,3.937908246E0,5.395781671E0
4.496627292E0,2.194481084E0,-2.914024240E0,3.744938142E0,5.227986820E0
4.506562292E0,1.876939852E0,-3.194205272E0,3.714053149E0,5.245954758E0
4.516498292E0,1.509096193E0,-3.218039693E0,3.804552845E0,5.206512569E0
4.526433292E0,1.010191289E0,-3.489031241E0,3.518164408E0,5.056807910E0
4.536368292E0,6.141207808E-1,-3.988058937E0,2.887993605E0,4.962082777E0
4.546304292E0,6.604161108E-1,-4.230661669E0,2.392574226E0,4.905003468E0
4.556239292E0,7.489657599E-1,-4.172449713E0,1.849799416E0,4.625153424E0
4.566174292E0,1.155757138E0,-4.145568309E0,9.295692945E-1,4.402909292E0
4.576110292E0,1.396039109E0,-4.253571060E0,-4.365069276E-1,4.498036266E0
4.586045292E0,1.220683451E0,-4.563789824E0,-1.002835491E0,4.829484927E0
4.595980292E0,9.029422438E-1,-4.323687361E0,-2.447301825E0,5.049639920E0
4.605916292E0,8.046634126E-1,-4.567280027E0,-3.951504484E0,6.092775865E0
4.615851292E0,1.449325955E-1,-5.207813850E0,-4.410799180E0,6.826234684E0
4.625786292E0,-4.809422582E-1,-6.240485929E0,-3.957713642E0,7.405299950E0
4.635722292E0,-7.342939264E-1,-7.159286406E0,-3.409476948E0,7.963611145E0
4.645657292E0,-9.041970563E-1,-7.939586810E0,-3.279792137E0,8.637803395E0
4.655592292E0,-5.677780885E-1,-8.508361849E0,-3.385520321E0,9.174766545E0
4.665528292E0,3.310635030E-1,-8.062026336E0,-3.704345602E0,8.878516094E0
4.675463292E0,1.621822910E0,-6.932834854E0,-5.283832916E0,8.866419736E0
4.685398292E0,2.909266945E0,-6.059797609E0,-7.462720061E0,1.004376284E1
4.695334292E0,3.535469828E0,-5.637124609E0,-9.500317426E0,1.159882546E1
4.705269292E0,3.327391396E0,-6.220531136E0,-1.109986537E1,1.315194101E1
4.715204292E0,2.912992206E0,-7.086473368E0,-1.217246925E1,1.438306769E1
4.725140292E0,3.189923356E0,-7.800265203E0,-1.238577919E1,1.498089698E1
4.735075292E0,4.395023392E0,-8.257194116E0,-1.260571986E1,1.569718633E1
4.745010292E0,6.365122254E0,-7.283435658E0,-1.266908146E1,1.593953705E1
4.754945292E0,8.980841432E0,-5.536244352E0,-1.277355366E1,1.656711162E1
4.764881292E0,1.114603030E1,-4.846346580E0,-1.259082818E1,1.750000060E1
4.774816292E0,1.232691293E1,-5.290977044E0,-1.154600324E1,1.769907939E1
4.784752292E0,1.245855246E1,-6.008912215E0,-1.017726829E1,1.717263362E1
4.794687292E0,1.201644449E1,-6.324719163E0,-9.035102423E0,1.631042876E1
4.804622292E0,1.155387477E1,-5.567769030E0,-8.671797958E0,1.548199451E1
4.814557292E0,1.182309812E1,-4.124619782E0,-9.221728590E0,1.555115480E1
4.824493292E0,1.222424401E1,-3.567740026E0,-9.825691588E0,1.608431303E1
4.834428292E0,1.281379186E1,-3.744455455E0,-9.148669385E0,1.618370662E1
4.844363292E0,1.422831636E1,-3.871283609E0,-7.736705968E0,1.665198014E1
4.854299292E0,1.559378973E1,-3.412285658E0,-5.805401044E0,1.698566022E1
4.864234292E0,1.547617884E1,-3.657204180E0,-5.333179908E0,1.677289664E1
4.874169292E0,1.389468008E1,-4.601422504E0,-5.394411950E0,1.559919562E1
4.884105292E0,1.089472399E1,-5.940608550E0,-4.915181172E0,1.334709132E1
4.894040292E0,7.949503103E0,-7.529500526E0,-3.977561431E0,1.164941941E1
4.903975292E0,5.131487805E0,-8.570400807E0,-3.173545890E0,1.048118937E1
4.913911292E0,3.486721006E0,-9.080949857E0,-3.006991460E0,1.018149652E1
4.923846292E0,3.643964329E0,-9.191510180E0,-2.402014263E0,1.017506796E1
4.933781292E0,5.164522235E0,-9.273721447E0,-7.770711328E-1,1.064321563E1
4.943717292E0,7.869833620E0,-1.014167980E1,1.135667566E0,1.288711338E1
4.953652292E0,9.694838503E0,-1.265186492E1,3.817803805E0,1.639009474E1
4.963587292E0,1.105007516E1,-1.500586740E1,6.301967062E0,1.967218865E1
4.973523292E0,1.246204676E1,-1.651992788E1,9.404927704E0,2.273022859E1
4.983458292E0,1.368865929E1,-1.625732475E1,1.350932518E1,2.518296782E1
4.993393292E0,1.530220078E1,-1.343913988E1,1.732764120E1,2.673976401E1
5.003329292E0,1.579437028E1,-9.768820399E0,1.927829807E1,2.676835373E1
5.013264292E0,1.465620742E1,-6.957559220E0,1.917955848E1,2.512105710E1
5.023199292E0,1.200803034E1,-5.510522450E0,1.780110312E1,2.216839919E1
5.033135292E0,8.429002853E0,-5.293976081E0,1.530945601E1,1.826071508E1
5.043070458E0,5.463854653E0,-5.259487449E0,1.172985023E1,1.396800996E1
5.053005458E0,3.447265749E0,-5.270807074E0,8.393301508E0,1.049345313E1
5.062941458E0,2.942487316E0,-4.705166143E0,6.263829768E0,8.368535319E0
5.072876458E0,3.041392384E0,-3.505226274E0,4.910193497E0,6.756232607E0
5.082811458E0,3.425988316E0,-2.342475867E0,4.130945007E0,5.855706258E0
5.092747458E0,3.751361893E0,-1.544473017E0,3.670901867E0,5.471163814E0
5.102682458E0,3.426164902E0,-1.295334853E0,3.572261386E0,5.116400075E0
5.112617458E0,3.096158575E0,-1.391014012E0,3.700847797E0,5.021692177E0
5.122553458E0,2.852727878E0,-1.508833653E0,3.836349419E0,5.013203786E0
5.132488458E0,2.382328150E0,-1.787428921E0,3.765148751E0,4.800701477E0
5.142423458E0,1.785171603E0,-2.016777769E0,3.383633425E0,4.324720265E0
5.152359458E0,1.287607757E0,-2.211084253E0,2.997322505E0,3.940909731E0
5.162294458E0,6.462225795E-1,-2.465808848E0,2.864304196E0,3.834325941E0
5.172229458E0,4.615739411E-1,-2.816538876E0,3.011544687E0,4.149137639E0
5.182165458E0,1.115094723E0,-2.672480439E0,3.570136800E0,4.596897291E0
5.192100458E0,2.339316324E0,-2.095850835E0,4.193761645E0,5.239525582E0
5.202035458E0,4.127313886E0,-1.720399364E0,4.351727099E0,6.239553080E0
5.211971458E0,5.818885893E0,-1.357380828E0,3.915004410E0,7.143470814E0
5.221906458E0,6.393153221E0,-1.330632155E0,3.222525676E0,7.282009460E0
5.231841458E0,5.571827583E0,-1.863266723E0,2.549911689E0,6.404613581E0
5.241777458E0,3.852519894E0,-2.513278298E0,2.091356373E0,5.052944569E0
5.251712458E0,2.175125046E0,-3.107193441E0,1.713021640E0,4.161762029E0
5.261647458E0,1.409474257E0,-3.263973665E0,1.726662025E0,3.952404776E0
5.271582458E0,1.418149186E0,-2.892128756E0,2.613820002E0,4.148205740E0
5.281518458E0,1.320274397E0,-2.729674979E0,4.004356297E0,5.022859676E0
5.291453458E0,1.175944650E0,-3.174259250E0,4.897114153E0,5.953191970E0
5.301389458E0,1.375168058E0,-3.613845322E0,5.135887835E0,6.428709750E0
5.311324458E0,1.546958084E0,-4.067178197E0,4.483705773E0,6.248090529E0
5.321259458E0,1.538283155E0,-4.437980547E0,2.774405594E0,5.455209693E0
5.331194458E0,1.299792185E0,-4.270359585E0,5.954957179E-1,4.503337192E0
5.341130458E0,1.047718719E0,-4.374749926E0,-1.130257430E0,4.638279130E0
5.351065458E0,4.096594369E-1,-4.611660978E0,-1.793177319E0,4.964949418E0
5.361000458E0,-5.708092850E-1,-4.940051719E0,-2.620712700E0,5.621215997E0
5.370936458E0,-7.961399263E-1,-5.419392425E0,-2.912770597E0,6.203860539E0
5.380871458E0,-9.589287490E-1,-5.894391573E0,-3.365351520E0,6.854851364E0
5.390806458E0,-8.500916004E-1,-6.509381250E0,-3.872497491E0,7.621741061E0
5.400742458E0,-6.255819082E-1,-7.166421179E0,-3.751566254E0,8.113149486E0
5.410677458E0,-3.306313938E-1,-7.745009599E0,-3.486395901E0,8.499967482E0
5.420612458E0,5.840953285E-1,-7.839454411E0,-3.992763022E0,8.817049924E0
5.430548458E0,2.004768757E0,-6.379697024E0,-5.654816530E0,8.757658469E0
5.440483458E0,2.988817729E0,-4.710987046E0,-8.063303953E0,9.805269043E0
5.450418458E0,3.042110422E0,-4.234467037E0,-1.018059185E1,1.143807664E1
5.460354458E0,2.192958469E0,-4.998213388E0,-1.121380538E1,1.247159312E1
5.470289458E0,7.058092153E-1,-6.675237522E0,-1.065428999E1,1.259249212E1
5.480224458E0,-2.365648967E-1,-8.437495934E0,-9.304478971E0,1.256266809E1
5.490160458E0,-4.361011308E-1,-9.340557461E0,-8.057136894E0,1.234316219E1
5.500095458E0,1.062871778E-1,-9.561694479E0,-8.161647688E0,1.257178552E1
5.510030458E0,2.454059452E0,-8.278209009E0,-9.017875357E0,1.248492003E1
5.519966458E0,5.744738520E0,-5.204898428E0,-1.037368913E1,1.295015114E1
5.529901458E0,8.983381462E0,-2.452458339E0,-1.181976520E1,1.504734342E1
5.539836458E0,1.118390389E1,-7.352789629E-1,-1.322238243E1,1.733354374E1
5.549772458E0,1.173370354E1,-5.127794704E-1,-1.453680844E1,1.868854037E1
5.559707458E0,1.076354171E1,-1.807547436E0,-1.570257601E1,1.912307379E1
5.569642458E0,9.384978173E0,-2.881450571E0,-1.520647953E1,1.810020973E1
5.579578458E0,8.567339789E0,-4.744788045E0,-1.361816642E1,1.677399122E1
5.589513458E0,7.625611795E0,-6.829208159E0,-1.159466845E1,1.546687996E1
5.599448458E0,8.237970225E0,-7.326229091E0,-8.260986035E0,1.377612705E1
5.609384458E0,9.626430173E0,-6.589913782E0,-5.507030493E0,1.290048473E1
5.619319458E0,1.040783453E1,-6.043107902E0,-4.648307233E0,1.290150894E1
5.629254458E0,1.031563213E1,-5.585015978E0,-4.835305867E0,1.268798063E1
5.639190458E0,1.006673487E1,-4.811929284E0,-5.481058331E0,1.243124349E1
5.649125458E0,1.002762986E1,-4.262202427E0,-6.456212518E0,1.266500731E1
5.659060458E0,9.674721742E0,-4.668900542E0,-6.853372947E0,1.274235433E1
5.668996458E0,8.728403683E0,-6.083905095E0,-6.255451292E0,1.234218793E1
5.678931458E0,8.140197762E0,-7.590053122E0,-5.208946456E0,1.228840304E1
5.688866458E0,8.954816059E0,-8.269352231E0,-3.724771680E0,1.274538509E1
5.698802458E0,1.065563719E1,-9.345229971E0,-1.447323868E0,1.424677765E1
5.708737458E0,1.176664442E1,-1.082608704E1,1.285391078E0,1.604089498E1
5.718672458E0,1.279136194E1,-1.185578171E1,3.946992772E0,1.788175753E1
5.728608458E0,1.440279026E1,-1.209581225E1,6.332322298E0,1.984558760E1
5.738543458E0,1.632437126E1,-1.235545670E1,8.439714952E0,2.214432649E1
5.748478458E0,1.672649364E1,-1.313555712E1,1.060211529E1,2.376390749E1
5.758414458E0,1.551559258E1,-1.210588584E1,1.185681082E1,2.297542269E1
5.768349458E0,1.322085046E1,-1.084627513E1,1.165231030E1,2.069320919E1
5.778284458E0,9.926526822E0,-1.070345689E1,1.073136682E1,1.811800646E1
5.788220458E0,6.245356075E0,-1.009618846E1,1.014898180E1,1.561855709E1
5.798155458E0,2.927843549E0,-9.167697979E0,1.022637321E1,1.404270854E1
5.808090458E0,6.093050140E-1,-7.978683048E0,1.060254330E1,1.328324359E1
5.818026458E0,-2.767083710E-1,-6.399670528E0,1.107163969E1,1.279115146E1
5.827961458E0,4.995808429E-1,-4.712865756E0,1.092526751E1,1.190891073E1
5.837896458E0,2.093993175E0,-3.097349069E0,9.628788355E0,1.032917924E1
5.847832458E0,3.543414440E0,-1.957803336E0,7.725596259E0,8.722019109E0
5.857767458E0,4.513519557E0,-1.092891383E0,5.862463437E0,7.478953664E0
5.867702458E0,4.903287935E0,-5.878591812E-1,4.237261421E0,6.507088085E0
5.877638458E0,4.734365676E0,-7.605724829E-1,3.094713144E0,5.707007823E0
5.887573458E0,4.383803755E0,-1.421316622E0,2.583695732E0,5.283309563E0
5.897508458E0,3.802066609E0,-2.107635314E0,2.461194225E0,4.995529414E0
5.907444458E0,3.048107327E0,-2.611147825E0,2.224021218E0,4.588607808E0
5.917379458E0,2.782041473E0,-2.558617609E0,2.223646996E0,4.385303272E0
5.927314458E0,3.033723176E0,-2.077349076E0,2.491873981E0,4.441654132E0
5.937250458E0,3.358238382E0,-1.541056489E0,2.789156950E0,4.629472608E0
5.947185458E0,4.068647602E0,-1.196071935E0,2.767010620E0,5.063677434E0
5.957120458E0,4.889126564E0,-1.022279238E0,2.549301825E0,5.607811800E0
5.967056458E0,5.245232522E0,-1.132563572E0,2.666756600E0,5.992224563E0
5.976991458E0,4.978918746E0,-1.302256787E0,2.890019373E0,5.902348397E0
5.986926458E0,4.414411005E0,-1.753955365E0,3.461571254E0,5.877572585E0
5.996862458E0,3.501871727E0,-2.152847155E0,4.750581467E0,6.282187575E0
6.006797458E0,2.295416306E0,-2.697055117E0,5.498794105E0,6.540625271E0
6.016732458E0,1.504470461E0,-3.245795841E0,5.436082717E0,6.507658359E0
6.026668458E0,1.236269204E0,-3.547857154E0,5.045885153E0,6.290994270E0
6.036603167E0,1.420866972E0,-3.496381776E0,4.682380128E0,6.014003004E0
6.046538167E0,1.866300259E0,-3.320378246E0,4.444803078E0,5.853568378E0
6.056473167E0,2.344650446E0,-3.292247876E0,4.163016400E0,5.802326028E0
6.066409167E0,2.508115792E0,-3.422287613E0,3.471764413E0,5.482321176E0
6.076344167E0,2.167817781E0,-3.828814697E0,2.660217658E0,5.141596435E0
6.086279167E0,1.223605304E0,-4.460536181E0,1.639107864E0,4.907164920E0
6.096215167E0,1.258420211E-1,-5.188454304E0,8.418177903E-1,5.257808618E0
6.106150167E0,-6.575620848E-1,-5.979139363E0,2.791361167E-1,6.021661929E0
6.116085167E0,-4.862053370E-1,-6.558383841E0,4.870917749E-1,6.594395547E0
6.126021167E0,-2.371618974E-1,-6.581180965E0,1.867447921E-1,6.588100051E0
6.135956167E0,1.208373892E-1,-7.075280628E0,-4.582176393E-1,7.091132565E0
6.145891167E0,2.041713220E-1,-7.020103378E0,-1.155250842E0,7.117453328E0
6.155827167E0,-3.370335102E-2,-6.770128477E0,-3.151474990E0,7.467768751E0
6.165762167E0,8.629320860E-3,-7.148292471E0,-5.673684325E0,9.126272708E0
6.175697167E0,-2.131760341E-1,-7.657858604E0,-7.404676505E0,1.065445806E1
6.185633167E0,-1.371967292E-1,-7.657534668E0,-7.903485516E0,1.100553240E1
6.195568167E0,1.293041575E-1,-7.440397730E0,-7.852132929E0,1.081814353E1
6.205503167E0,-3.014415085E-2,-7.938494550E0,-7.988300548E0,1.126204023E1
6.215439167E0,1.719759679E-1,-8.416390994E0,-7.801635790E0,1.147740102E1
6.225374167E0,7.904669577E-1,-8.302528748E0,-7.563265273E0,1.125876562E1
6.235309167E0,2.129519688E0,-7.479209794E0,-7.848390126E0,1.104855922E1
6.245245167E0,3.279179349E0,-6.451997260E0,-9.069326761E0,1.160318809E1
6.255180167E0,3.792853151E0,-6.549611263E0,-1.026482099E1,1.275341886E1
6.265115167E0,3.778836790E0,-7.497075377E0,-1.030555854E1,1.329248974E1
6.275051167E0,4.334421095E0,-8.044817396E0,-9.658364156E0,1.329625103E1
6.284986167E0,5.326855559E0,-8.070390778E0,-9.452317632E0,1.352231142E1
6.294921167E0,6.998955753E0,-7.556182541E0,-9.701254653E0,1.414905008E1
6.304857167E0,9.509166017E0,-5.603275663E0,-1.040298017E1,1.516716628E1
6.314792167E0,1.131932540E1,-3.478853870E0,-1.141349598E1,1.644680645E1
6.324727167E0,1.096754755E1,-3.479899644E0,-1.226625976E1,1.681838070E1
6.334663167E0,9.788893890E0,-4.154938472E0,-1.197747864E1,1.601705191E1
6.344598167E0,8.868283700E0,-5.737717769E0,-1.297298114E1,1.672919904E1
6.354533167E0,7.929030247E0,-6.481748478E0,-1.358962266E1,1.701647519E1
6.364469167E0,7.540051827E0,-6.577092007E0,-1.228384701E1,1.584308740E1
6.374404167E0,7.625334052E0,-6.561047248E0,-1.012287515E1,1.427114788E1
6.384339167E0,8.118615105E0,-6.140123734E0,-7.842376850E0,1.284974340E1
6.394275167E0,8.202920845E0,-5.746496193E0,-6.420812305E0,1.189693068E1
6.404210167E0,7.543243822E0,-5.984787773E0,-5.519247665E0,1.109866239E1
6.414145167E0,6.600692539E0,-6.673862257E0,-5.098223580E0,1.068182864E1
6.424081167E0,6.225731065E0,-6.921314085E0,-4.732521172E0,1.044323095E1
6.434016167E0,5.970681950E0,-7.104181076E0,-4.190542753E0,1.018229249E1
6.443951167E0,5.243653189E0,-8.191777221E0,-4.372385312E0,1.066390483E1
6.453887167E0,5.369489948E0,-9.934859104E0,-3.848561913E0,1.193081206E1
6.463822167E0,6.237193362E0,-1.111450680E1,-2.105359578E0,1.291771579E1
6.473757167E0,8.483248057E0,-1.141656226E1,-5.728949869E-1,1.423487268E1
6.483693167E0,1.188218423E1,-1.153131504E1,1.197611507E0,1.660095786E1
6.493628167E0,1.495750041E1,-1.126909665E1,3.229402587E0,1.900390483E1
6.503563167E0,1.792026002E1,-1.092733508E1,4.653658020E0,2.149881169E1
6.513499167E0,1.965343204E1,-1.147483327E1,5.621801396E0,2.344213814E1
6.523434167E0,1.969866142E1,-1.314423790E1,7.465739563E0,2.483033465E1
6.533369167E0,1.784961513E1,-1.535734471E1,9.778336743E0,2.549652263E1
6.543305167E0,1.354587028E1,-1.737715426E1,1.221178125E1,2.519094466E1
6.553240167E0,7.961669405E0,-1.705399853E1,1.476210049E1,2.391958730E1
6.563175167E0,3.085365785E0,-1.369392178E1,1.681708572E1,2.190564648E1
6.573111167E0,-1.075495917E-1,-9.715538816E0,1.589154633E1,1.862644642E1
6.583046167E0,-5.843730712E-1,-7.615525348E0,1.229333471E1,1.447286414E1
6.592981167E0,2.585983747E-1,-6.235133387E0,8.702893451E0,1.070906699E1
6.602917167E0,1.749683390E0,-4.535715587E0,6.247329510E0,7.916011234E0
6.612852167E0,3.363322536E0,-3.210514911E0,4.632614475E0,6.563570778E0
6.622787167E0,4.450414943E0,-2.505758779E0,3.395628988E0,6.133132678E0
6.632723167E0,4.708755748E0,-2.113125265E0,1.823450693E0,5.473815078E0
6.642658167E0,4.136787545E0,-1.824850516E0,4.644016546E-1,4.545190810E0
6.652593167E0,2.986035332E0,-1.885140572E0,3.588009399E-1,3.549492935E0
6.662529167E0,2.527518607E0,-1.966921484E0,1.205019345E0,3.421871134E0
6.672464167E0,2.298813830E0,-1.706677119E0,2.141614069E0,3.575444397E0
6.682399167E0,1.979660228E0,-1.576580663E0,2.839202684E0,3.803384425E0
6.692335167E0,2.038976723E0,-1.554516195E0,3.536122377E0,4.367849373E0
6.702270167E0,2.388219219E0,-1.415658272E0,3.879051050E0,4.770190398E0
6.712205167E0,3.237709726E0,-1.251444483E0,3.617588709E0,5.013564164E0
6.722141167E0,4.470357165E0,-8.899158168E-1,2.721936774E0,5.308953112E0
6.732076167E0,4.875741410E0,-8.014275634E-1,2.022805956E0,5.339183867E0
6.742011167E0,4.437677661E0,-1.233100598E0,2.256807725E0,5.129005870E0
6.751947167E0,4.199286679E0,-1.536164124E0,3.017946804E0,5.394609507E0
6.761882167E0,4.051390130E0,-1.656771133E0,3.916493403E0,5.873463471E0
6.771817167E0,4.073638201E0,-1.945559267E0,4.809606185E0,6.596365720E0
6.781753167E0,4.517864038E0,-2.126225951E0,5.388998598E0,7.346648089E0
6.791688167E0,4.830163826E0,-2.530922856E0,5.417089791E0,7.686411054E0
6.801623167E0,4.544858294E0,-2.944267209E0,4.987099586E0,7.361766675E0
6.811559167E0,3.935086672E0,-3.205526651E0,4.396368252E0,6.714786820E0
6.821494167E0,3.176377112E0,-3.822825978E0,3.740538697E0,6.220530505E0
6.831429167E0,2.283488570E0,-4.462128963E0,3.151972003E0,5.921135232E0
6.841365167E0,1.780674802E0,-4.448506705E0,2.902492361E0,5.602184981E0
6.851300167E0,1.509674483E0,-4.167884792E0,2.682723591E0,5.181446376E0
6.861235167E0,1.052683589E0,-4.255184891E0,2.424822789E0,5.009441761E0
6.871171167E0,7.697233754E-1,-4.681034684E0,2.768784081E0,5.492788460E0
6.881106167E0,1.297355651E0,-5.056276240E0,3.131634218E0,6.087379894E0
6.891041167E0,1.781103403E0,-5.292340615E0,2.758710498E0,6.228296888E0
6.900977167E0,1.832042007E0,-5.687878441E0,1.652066463E0,6.199811503E0
6.910912167E0,1.572992227E0,-6.269948879E0,3.502600582E-1,6.473735058E0
6.920847167E0,1.528292018E0,-6.286756700E0,-9.441898187E-1,6.538385176E0
6.930783167E0,1.047490677E0,-6.746589341E0,-1.923114730E0,7.093100501E0
6.940718167E0,-5.840549827E-2,-7.626960163E0,-2.605536836E0,8.059947564E0
6.950653167E0,-8.554651916E-2,-8.514477451E0,-3.612579107E0,9.249560653E0
6.960589167E0,1.309396822E0,-8.342854071E0,-4.462934417E0,9.551728518E0
6.970524167E0,2.654729462E0,-6.703715217E0,-5.567457958E0,9.109554014E0
6.980459167E0,3.680711741E0,-5.376939300E0,-7.366645630E0,9.834967361E0
6.990395167E0,3.816875852E0,-5.619606936E0,-9.223954040E0,1.145555985E1
7.000330167E0,3.272919320E0,-5.782226189E0,-1.007530221E1,1.206887961E1
7.010265167E0,2.871364124E0,-5.748657909E0,-9.594746450E0,1.154776858E1
7.020201167E0,2.251741698E0,-6.477075384E0,-8.016560726E0,1.054931714E1
7.030136167E0,1.806117207E0,-7.600688038E0,-6.441285161E0,1.012534802E1
7.040071667E0,1.729625101E0,-8.921653576E0,-6.100919323E0,1.094571707E1
7.050007667E0,2.771341068E0,-9.172621919E0,-6.300668980E0,1.146803182E1
7.059942667E0,4.607063897E0,-7.134249798E0,-7.611456270E0,1.140424590E1
7.069877667E0,5.769843541E0,-4.949777977E0,-1.013754699E1,1.267127679E1
7.079813667E0,6.382001411E0,-4.059844034E0,-1.222991698E1,1.437995636E1
7.089748667E0,7.159591631E0,-3.897594325E0,-1.247007148E1,1.489810983E1
7.099683667E0,7.396281658E0,-3.896795888E0,-1.167465251E1,1.435923089E1
7.109619667E0,7.395264827E0,-4.493882267E0,-1.049326235E1,1.360123062E1
7.119554667E0,7.425082703E0,-4.816200382E0,-8.761870222E0,1.245383511E1
7.129489667E0,7.477689518E0,-4.964923435E0,-7.725244841E0,1.184253829E1
7.139425667E0,7.647400274E0,-5.101965213E0,-7.520411614E0,1.187726277E1
7.149360667E0,8.151045517E0,-4.595356017E0,-8.398477464E0,1.257343484E1
7.159295667E0,9.070787981E0,-3.455666151E0,-1.000752128E1,1.394171099E1
7.169231667E0,9.879822772E0,-2.514783664E0,-1.086591125E1,1.489976719E1
7.179166667E0,9.832778413E0,-3.194745263E0,-1.123071904E1,1.526495918E1
7.189101667E0,9.187235280E0,-4.802222029E0,-1.083803407E1,1.499765351E1
7.199037667E0,8.514841733E0,-6.043751680E0,-9.894772933E0,1.438527009E1
7.208972667E0,8.193855906E0,-6.635160706E0,-9.001482103E0,1.386330813E1
7.218907667E0,7.884943410E0,-7.260520420E0,-7.833707768E0,1.327608627E1
7.228843667E0,7.077195007E0,-8.658058755E0,-5.866918430E0,1.262811951E1
7.238778667E0,5.983235922E0,-1.019652902E1,-3.425877804E0,1.230873490E1
7.248713667E0,5.620027936E0,-1.101391130E1,-1.385334904E0,1.244227105E1
7.258649667E0,6.399060663E0,-1.079687201E1,-3.075460017E-2,1.255075171E1
7.268584667E0,7.616407692E0,-1.016569899E1,6.751569414E-1,1.272033565E1
7.278519667E0,9.059109921E0,-9.604079776E0,3.335029614E-1,1.320670455E1
7.288455667E0,1.147125478E1,-8.988534613E0,-2.556075239E-1,1.457562266E1
7.298390667E0,1.376266866E1,-9.552204448E0,3.373843431E-4,1.675278063E1
7.308325667E0,1.584849679E1,-1.080790453E1,1.129585585E0,1.921618106E1
7.318261667E0,1.688369252E1,-1.256463148E1,3.487276492E0,2.133284170E1
7.328196667E0,1.643991341E1,-1.402665525E1,6.911569700E0,2.268893136E1
7.338131667E0,1.603579363E1,-1.415430698E1,1.001804393E1,2.361889684E1
7.348067667E0,1.539293320E1,-1.357614833E1,1.177114911E1,2.366039196E1
7.358002667E0,1.374983753E1,-1.325542505E1,1.254108942E1,2.284826578E1
7.367937667E0,1.035812267E1,-1.312270378E1,1.314935421E1,2.126973380E1
7.377873667E0,6.529138992E0,-1.192314748E1,1.358978638E1,1.922169076E1
7.387808667E0,3.416262642E0,-9.955195720E0,1.270987281E1,1.650204954E1
7.397743667E0,1.285234665E0,-8.442668381E0,1.058989928E1,1.360428037E1
7.407679667E0,2.335120654E-1,-7.430932258E0,8.480474138E0,1.127793083E1
7.417614667E0,-1.143715382E-2,-6.082968371E0,7.043404532E0,9.306566629E0
7.427549667E0,5.234620410E-1,-4.727677923E0,5.749420386E0,7.461955898E0
7.437485667E0,1.482456571E0,-3.472902866E0,4.428494609E0,5.819819267E0
7.447420667E0,2.603222508E0,-2.175783443E0,3.519912141E0,4.888822200E0
7.457355667E0,3.147761423E0,-1.325726926E0,3.104542313E0,4.615640457E0
7.467291667E0,2.805624755E0,-1.276515589E0,2.951761585E0,4.267776795E0
7.477226667E0,2.357587703E0,-1.751279680E0,3.135983961E0,4.296463162E0
7.487161667E0,2.191563031E0,-1.904458019E0,3.664280188E0,4.675131887E0
7.497097667E0,1.973696653E0,-1.840866625E0,4.007518179E0,4.831611570E0
7.507032667E0,2.334531839E0,-1.781806823E0,4.183741856E0,5.111611329E0
7.516967667E0,3.042031485E0,-1.423404078E0,4.352538693E0,5.497692952E0
7.526903667E0,3.431794016E0,-1.398247018E0,4.407811253E0,5.758567959E0
7.536838667E0,3.259154974E0,-1.778061097E0,4.373696258E0,5.736968831E0
7.546773667E0,3.241662152E0,-2.147629684E0,4.483328628E0,5.934721759E0
7.556709667E0,3.608940385E0,-2.111540669E0,4.752183604E0,6.329794918E0
7.566644667E0,4.047300880E0,-1.830717028E0,5.060859872E0,6.733830403E0
7.576579667E0,4.559189819E0,-1.834434103E0,5.101403296E0,7.083479080E0
7.586515667E0,4.762367699E0,-2.081932708E0,5.164409384E0,7.327053581E0
7.596450667E0,4.648109597E0,-2.545039204E0,5.442433963E0,7.596198708E0
7.606385667E0,4.178896853E0,-3.359720067E0,5.416461800E0,7.621611134E0
7.616321667E0,3.754307721E0,-3.979309164E0,5.422116058E0,7.702536623E0
7.626256667E0,3.722794152E0,-4.278911138E0,5.102551689E0,7.629174960E0
7.636191667E0,4.042266719E0,-4.215188767E0,4.617874814E0,7.445300825E0
7.646127667E0,3.886198686E0,-3.940072592E0,4.416228612E0,7.080239221E0
7.656062667E0,3.277714621E0,-4.330415753E0,4.357126418E0,6.962791420E0
7.665997667E0,2.638889354E0,-5.055203860E0,4.232942083E0,7.101874525E0
7.675933667E0,2.272812724E0,-5.480841399E0,3.695014615E0,6.989880766E0
7.685868667E0,2.342323839E0,-5.752923453E0,2.724496100E0,6.782734568E0
7.695803667E0,2.644071157E0,-5.823016950E0,1.706477144E0,6.618965397E0
7.705739667E0,3.171645545E0,-6.005583395E0,1.032964439E0,6.869744021E0
7.715674667E0,3.352174235E0,-6.517622316E0,4.632011847E-1,7.343774785E0
7.725609667E0,3.024554742E0,-6.985888980E0,-5.118127064E-1,7.629713525E0
7.735545667E0,2.663807849E0,-7.134042222E0,-2.326073842E0,7.962477642E0
7.745480667E0,2.160692949E0,-7.347341632E0,-3.897103159E0,8.592987613E0
7.755415667E0,1.552364420E0,-7.470455343E0,-5.267850137E0,9.271881329E0
7.765351667E0,1.258921317E0,-7.602933369E0,-6.484203140E0,1.007146310E1
7.775286667E0,1.436711172E0,-7.667363838E0,-6.962936320E0,1.045634207E1
7.785221667E0,2.047523598E0,-7.547122280E0,-6.894604003E0,1.042530441E1
7.795157667E0,3.130880511E0,-7.095756408E0,-6.686246660E0,1.024002276E1
7.805092667E0,4.062205140E0,-6.628859162E0,-7.446512164E0,1.076539956E1
7.815027667E0,4.478007077E0,-6.660186789E0,-8.759973385E0,1.188056266E1
7.824963667E0,3.711259934E0,-7.800471609E0,-9.343430198E0,1.272479845E1
7.834898667E0,2.476315709E0,-9.093191587E0,-8.806130721E0,1.289830264E1
7.844833667E0,1.916141925E0,-1.029918391E1,-8.725077787E0,1.363347980E1
7.854769667E0,2.356818502E0,-1.047808649E1,-9.532595810E0,1.436019752E1
7.864704667E0,4.198513677E0,-8.875716680E0,-1.065229960E1,1.448714432E1
7.874639667E0,6.734680901E0,-7.295337666E0,-1.216382590E1,1.570148206E1
7.884575667E0,9.244524545E0,-5.605356102E0,-1.360374836E1,1.737651347E1
7.894510667E0,1.152448081E1,-3.471992455E0,-1.447747791E1,1.882726099E1
7.904445667E0,1.260665542E1,-2.264403843E0,-1.485876432E1,1.961729244E1
7.914381667E0,1.196948784E1,-2.619396492E0,-1.473384908E1,1.916288564E1
7.924316667E0,1.031170514E1,-3.378418585E0,-1.373100716E1,1.750101519E1
7.934251667E0,8.421673953E0,-4.393157254E0,-1.218934782E1,1.545330460E1
7.944187667E0,7.020302768E0,-5.092286317E0,-1.096169683E1,1.397765461E1
7.954122667E0,5.889192814E0,-5.282328427E0,-9.385447705E0,1.227486107E1
7.964057667E0,5.220478919E0,-6.025715359E0,-7.664849535E0,1.105950108E1
7.973993667E0,4.929320324E0,-6.660567443E0,-6.518996996E0,1.054318165E1
7.983928667E0,4.804833688E0,-7.115234653E0,-5.990011675E0,1.046867856E1
7.993863667E0,4.703400868E0,-7.783836865E0,-5.888492317E0,1.083440990E1
8.003799667E0,4.874776912E0,-8.681074566E0,-5.804194179E0,1.152445988E1
8.013734667E0,5.205985426E0,-9.095207123E0,-5.711885355E0,1.193527173E1
8.023669667E0,6.329435527E0,-9.218603253E0,-5.783649402E0,1.258947975E1
8.033605667E0,8.104743755E0,-9.346385381E0,-5.265087327E0,1.344481073E1
8.043539792E0,9.341289532E0,-9.998596094E0,-3.743582173E0,1.418612073E1
8.053474792E0,1.030398681E1,-1.087782554E1,-1.813995160E0,1.509270722E1
8.063410792E0,1.188436524E1,-1.031451648E1,-3.076740557E-1,1.573918837E1
8.073345792E0,1.416919049E1,-9.413694434E0,6.466745692E-1,1.702356572E1
8.083280792E0,1.633107685E1,-8.554906855E0,1.319534140E0,1.848328090E1
8.093216792E0,1.790746748E1,-8.038514682E0,1.644684353E0,1.969771805E1
8.103151792E0,1.823883855E1,-9.105652004E0,1.830557984E0,2.046751261E1
8.113086792E0,1.741908698E1,-1.140139341E1,2.503116422E0,2.096859449E1
8.123022792E0,1.596983587E1,-1.355189057E1,3.778761946E0,2.128305518E1
8.132957792E0,1.394630866E1,-1.516604954E1,5.193836081E0,2.124816503E1
8.142892792E0,1.068691863E1,-1.672275493E1,6.694550291E0,2.094463573E1
8.152828792E0,6.663203952E0,-1.674678114E1,8.818193527E0,2.006523119E1
8.162763792E0,3.316376996E0,-1.515495854E1,1.302122886E1,2.025397555E1
8.172698792E0,7.162868410E-2,-1.179977942E1,1.859785993E1,2.202544708E1
8.182634792E0,-1.767500733E0,-7.468280763E0,2.153162086E1,2.285847705E1
8.192569792E0,-9.742458227E-1,-5.541524388E0,1.885433518E1,1.967596510E1
8.202504792E0,5.485527357E-1,-4.357999992E0,1.214799982E1,1.291770002E1
8.212440792E0,1.317830553E0,-2.705842897E0,5.556545885E0,6.319293103E0
8.222375792E0,2.013974614E0,-2.126877331E0,9.075013179E-1,3.066473474E0
8.232310792E0,3.068249230E0,-2.155128738E0,-1.282123069E0,3.962647194E0
8.242246792E0,3.836373392E0,-1.776475917E0,-1.342649353E0,4.435801480E0
8.252181792E0,4.012060003E0,-1.107438671E0,-2.263767081E-1,4.168248108E0
8.262116792E0,3.984007401E0,-8.702504611E-1,1.353375485E0,4.296658707E0
8.272052792E0,3.989425431E0,-1.077754696E0,2.684760177E0,4.927982109E0
8.281987792E0,4.132369974E0,-1.067318001E0,3.424718301E0,5.472142611E0
8.291922792E0,4.354605976E0,-9.460409009E-1,3.689866142E0,5.785559501E0
8.301858792E0,4.493672352E0,-9.705804956E-1,3.336407803E0,5.680381566E0
8.311793792E0,4.801922651E0,-1.137736604E0,2.635721918E0,5.594634551E0
8.321728792E0,5.073344847E0,-1.410053716E0,2.050922585E0,5.650961234E0
8.331664792E0,5.249682253E0,-1.623298747E0,1.523420702E0,5.702198981E0
8.341599792E0,5.313702832E0,-1.715392978E0,1.272761092E0,5.726947848E0
8.351534792E0,5.445899608E0,-1.798034016E0,1.226179833E0,5.864662466E0
8.361470792E0,5.626199672E0,-1.647743617E0,1.406123217E0,6.028794595E0
8.371405792E0,5.519856945E0,-1.418958440E0,2.199799127E0,6.109122683E0
8.381340792E0,5.040005193E0,-1.775964285E0,3.286281085E0,6.273383844E0
8.391276792E0,4.516537305E0,-2.388223897E0,4.313074665E0,6.686204878E0
8.401211792E0,4.006384111E0,-2.822522916E0,5.369792833E0,7.269967285E0
8.411146792E0,3.324060822E0,-3.225465657E0,6.050178355E0,7.619558201E0
8.421082792E0,2.343576313E0,-4.074926927E0,6.224922395E0,7.800451155E0
8.431017792E0,1.359746611E0,-5.039189506E0,5.778015025E0,7.786385513E0
8.440952792E0,1.012508540E0,-5.345942625E0,4.876566160E0,7.306515832E0
8.450888792E0,9.889740819E-1,-5.251059857E0,3.730071304E0,6.516527549E0
8.460823792E0,1.319986714E0,-5.013277570E0,2.901648023E0,5.940949265E0
8.470758792E0,1.529019996E0,-4.668295940E0,2.406987905E0,5.470327221E0
8.480694792E0,1.485928355E0,-4.886267275E0,1.651965891E0,5.367735302E0
8.490629792E0,1.298295298E0,-5.290827355E0,9.347474425E-1,5.527402425E0
8.500564792E0,1.118743678E0,-5.612996074E0,5.201941053E-1,5.746991757E0
8.510500792E0,8.910595322E-1,-6.029842908E0,1.348828398E-2,6.095340394E0
8.520435792E0,4.227419972E-1,-6.520739467E0,-4.737145150E-1,6.551576866E0
8.530370792E0,-1.715345031E-1,-7.371014670E0,-6.121906149E-1,7.398382167E0
8.540306792E0,-7.503135431E-1,-7.923580642E0,-1.290236666E0,8.062928206E0
8.550241792E0,-7.259809399E-1,-8.700023637E0,-1.947099423E0,8.944755770E0
8.560177792E0,-5.765939355E-3,-9.115795754E0,-1.457608536E0,9.231597268E0
8.570112792E0,4.066791111E-1,-8.673098379E0,-1.744979305E0,8.856239392E0
8.580047792E0,1.621839867E0,-7.879001470E0,-4.019634486E0,8.992579725E0
8.589983792E0,2.757245185E0,-7.412412956E0,-6.919261127E0,1.050820829E1
8.599918792E0,3.099450558E0,-6.910513692E0,-8.797088587E0,1.160821092E1
8.609853792E0,3.094427800E0,-7.149384731E0,-9.152367749E0,1.201894425E1
8.619789792E0,2.433218222E0,-8.510572096E0,-8.401423291E0,1.220386421E1
8.629724792E0,1.614810344E0,-9.799363915E0,-7.225838245E0,1.228201465E1
8.639659792E0,1.869058975E0,-1.049551002E1,-6.564843260E0,1.251983543E1
8.649595792E0,3.236149104E0,-9.669337041E0,-7.522902528E0,1.267133783E1
8.659530792E0,5.239639075E0,-7.455404609E0,-1.019183020E1,1.367151339E1
8.669465792E0,7.038713311E0,-5.920519856E0,-1.330873528E1,1.617771539E1
8.679401792E0,8.071892928E0,-5.363957897E0,-1.506442025E1,1.791268426E1
8.689336792E0,8.699944700E0,-5.340462030E0,-1.595497342E1,1.894124466E1
8.699271792E0,9.357380485E0,-5.827782431E0,-1.661472645E1,1.993922648E1
8.709207792E0,1.027301762E1,-5.988884332E0,-1.630782598E1,2.018283466E1
8.719142792E0,1.100409499E1,-5.514351792E0,-1.565444407E1,1.991380932E1
8.729077792E0,1.109328608E1,-5.328160658E0,-1.500560896E1,1.940666360E1
8.739013792E0,1.067593872E1,-5.579106781E0,-1.391176565E1,1.840215540E1
8.748948792E0,9.493831694E0,-6.451568075E0,-1.252048968E1,1.698582446E1
8.758883792E0,8.818055533E0,-7.061197025E0,-1.087706891E1,1.568213107E1
8.768819792E0,9.239418172E0,-7.081408510E0,-9.207454952E0,1.484218385E1
8.778754792E0,9.814086034E0,-7.242953045E0,-8.512582369E0,1.487416257E1
8.788689792E0,9.932034899E0,-7.323051129E0,-7.852922888E0,1.462671504E1
8.798625792E0,9.660729940E0,-7.856437064E0,-7.610875057E0,1.459379065E1
8.808560792E0,9.492301478E0,-8.919110622E0,-7.004461491E0,1.478907713E1
8.818495792E0,9.326280899E0,-1.041094759E1,-5.407688053E0,1.498700888E1
8.828431792E0,9.802588654E0,-1.157390031E1,-3.141369539E0,1.548916122E1
8.838366792E0,1.115918069E1,-1.153003216E1,-1.342531824E0,1.610190507E1
8.848301792E0,1.368696242E1,-1.058360885E1,-1.416803741E-1,1.730219032E1
8.858237792E0,1.706081170E1,-9.529649398E0,9.005530715E-1,1.956263043E1
8.868172792E0,1.997868926E1,-9.437503127E0,1.581174821E0,2.215207899E1
8.878107792E0,2.215138128E1,-1.064057359E1,2.785362107E0,2.473183659E1
8.888043792E0,2.337029653E1,-1.339931801E1,4.692738470E0,2.734473034E1
8.897978792E0,2.254573387E1,-1.684484245E1,7.230524204E0,2.905751733E1
8.907913792E0,1.778261539E1,-1.973070183E1,9.442915894E0,2.819025834E1
8.917849792E0,1.152791898E1,-2.039426725E1,1.092792682E1,2.585031213E1
8.927784792E0,6.452238750E0,-1.834047017E1,1.377312582E1,2.382652358E1
8.937719792E0,2.316564808E0,-1.376214475E1,1.708203359E1,2.205808179E1
8.947655792E0,-5.071731600E-1,-8.960818811E0,1.793934416E1,2.005925141E1
8.957590792E0,-1.135765507E0,-6.288475782E0,1.603690811E1,1.726317794E1
8.967525792E0,4.499219021E-1,-4.832566447E0,1.234312609E1,1.326306487E1
8.977461792E0,3.234349039E0,-3.092925065E0,7.919455431E0,9.096426413E0
8.987396792E0,6.156376655E0,-1.130785434E0,3.589101074E0,7.215351394E0
8.997331792E0,7.617279512E0,-1.846807981E-1,6.536812878E-1,7.647506351E0
9.007267792E0,7.067134287E0,-6.926126343E-1,-2.768054348E-1,7.106385899E0
9.017202792E0,5.338968651E0,-1.511359066E0,4.638870996E-1,5.568122101E0
9.027137792E0,3.495007680E0,-2.097754689E0,2.056447034E0,4.565591727E0
9.037073792E0,2.416811227E0,-2.203667060E0,3.495250924E0,4.786846983E0
9.047008917E0,2.450307879E0,-1.845296475E0,4.080309874E0,5.104709242E0
9.056943917E0,3.393777467E0,-1.394469717E0,3.863203926E0,5.327909145E0
9.066879917E0,4.817505189E0,-7.347236967E-1,3.190529128E0,5.824744738E0
9.076814917E0,5.777367153E0,-3.481765491E-1,2.171603561E0,6.181833074E0
9.086749917E0,6.126426047E0,-4.296978450E-1,1.297422309E0,6.277024852E0
9.096685917E0,6.125907984E0,-6.951327842E-1,1.035020613E0,6.251497891E0
9.106620917E0,5.863786662E0,-8.513779879E-1,1.536583077E0,6.121268336E0
9.116555917E0,4.836580560E0,-1.385151594E0,2.530883972E0,5.631743081E0
9.126491917E0,3.703501556E0,-2.189218006E0,3.730322150E0,5.694199030E0
9.136426917E0,2.741657678E0,-2.898851300E0,4.993697584E0,6.391951286E0
9.146361917E0,2.080738707E0,-3.552883421E0,5.838365307E0,7.144155907E0
9.156297917E0,1.580967537E0,-3.798484604E0,6.061511428E0,7.325971911E0
9.166232917E0,1.518960154E0,-3.843204110E0,5.720005968E0,7.056622850E0
9.176167917E0,1.810870116E0,-4.083218864E0,4.721119101E0,6.499299380E0
9.186103917E0,2.301601198E0,-4.325180156E0,3.511251830E0,6.027722693E0
9.196038917E0,2.808374116E0,-4.215654205E0,2.686385118E0,5.733704784E0
9.205973917E0,2.940323846E0,-4.026861645E0,2.192426373E0,5.446820396E0
9.215909917E0,2.365377656E0,-3.876541425E0,1.477642997E0,4.775564229E0
9.225844917E0,1.247198820E0,-4.266584623E0,2.811820026E-1,4.454022065E0
9.235779917E0,1.066847885E-1,-4.946308824E0,-6.120023346E-1,4.985167950E0
9.245715917E0,-7.110225928E-1,-5.427429423E0,-5.102748521E-1,5.497537966E0
9.255650917E0,-1.022259942E0,-6.074667079E0,-3.323884821E-1,6.169041871E0
9.265586917E0,-3.299104321E-1,-6.909025576E0,-1.770864344E-1,6.919164322E0
9.275521917E0,7.112810397E-1,-6.328822739E0,-8.493776554E-1,6.425057228E0
9.285456917E0,8.554160750E-1,-5.424994057E0,-1.628604510E0,5.728407269E0
9.295392917E0,1.127567126E0,-5.157618427E0,-2.138870555E0,5.696244615E0
9.305327917E0,6.478007430E-1,-4.894598973E0,-2.955271084E0,5.754161284E0
9.315262917E0,-2.060237199E-1,-5.154462100E0,-4.232585403E0,6.672758388E0
9.325198917E0,-4.458227116E-1,-5.936235418E0,-4.991176264E0,7.768493376E0
9.335133917E0,-1.161892036E0,-6.594715515E0,-4.670657630E0,8.164270239E0
9.345068917E0,-1.386905174E0,-7.496991177E0,-4.740535365E0,8.977809210E0
9.355004917E0,-2.687865633E-1,-7.702689791E0,-5.272068318E0,9.338007314E0
9.364939917E0,9.161230373E-1,-7.173162434E0,-5.409877836E0,9.031075180E0
9.374874917E0,1.469123458E0,-6.882448227E0,-5.425885173E0,8.886317980E0
9.384810917E0,1.854260842E0,-6.631481053E0,-5.800508094E0,9.003372611E0
9.394745917E0,2.030290099E0,-6.713375986E0,-6.295014723E0,9.424367638E0
9.404680917E0,2.286047897E0,-6.662409900E0,-6.485649741E0,9.574830193E0
9.414616917E0,2.810655992E0,-6.445207474E0,-6.799551666E0,9.781328608E0
9.424551917E0,3.203012348E0,-6.468001674E0,-7.288502271E0,1.025751428E1
9.434486917E0,3.436108092E0,-6.683538814E0,-7.320717505E0,1.049139813E1
9.444422917E0,3.665669779E0,-7.123059397E0,-7.200510446E0,1.077137228E1
9.454357917E0,4.384886075E0,-7.045275056E0,-7.535465856E0,1.120920926E1
9.464292917E0,5.750217946E0,-5.624782891E0,-8.532778067E0,1.172652935E1
9.474228917E0,6.983033785E0,-4.274692664E0,-1.023103929E1,1.310381330E1
9.484163917E0,7.773682591E0,-3.257941092E0,-1.198883394E1,1.465525368E1
9.494098917E0,8.127918609E0,-2.440038122E0,-1.293233481E1,1.546810042E1
9.504034917E0,8.544216390E0,-2.121415155E0,-1.317567019E1,1.584620841E1
9.513969917E0,9.545992951E0,-1.261041810E0,-1.293823348E1,1.612805299E1
9.523904917E0,9.938476192E0,-8.608248226E-1,-1.266316876E1,1.612048918E1
9.533840917E0,9.746237283E0,-2.017149652E0,-1.176312556E1,1.540873638E1
9.543775917E0,9.024385062E0,-3.281841002E0,-1.020182426E1,1.401025426E1
9.553710917E0,8.136932677E0,-4.630347510E0,-9.459861125E0,1.330934874E1
9.563646917E0,7.536037713E0,-5.682764466E0,-9.010317246E0,1.304881195E1
9.573581917E0,6.952171011E0,-6.410525299E0,-8.168721650E0,1.249622062E1
9.583516917E0,6.375144966E0,-7.582334213E0,-7.141454737E0,1.221206949E1
9.593452917E0,6.152213438E0,-8.353273809E0,-6.142114127E0,1.205622161E1
9.603387917E0,6.638211783E0,-8.427510059E0,-4.963142958E0,1.182038787E1
9.613322917E0,7.655053110E0,-8.503330904E0,-3.824465830E0,1.206370646E1
9.623258917E0,9.288500869E0,-8.661123866E0,-2.623337515E0,1.296816158E1
9.633193917E0,1.079017110E1,-9.038425396E0,-1.109714992E0,1.411922071E1
9.643128917E0,1.222045852E1,-9.618310145E0,4.805522490E-1,1.555899826E1
9.653064917E0,1.356507838E1,-1.018101051E1,1.773717200E0,1.705316391E1
9.662999917E0,1.455259709E1,-1.103719842E1,2.946618959E0,1.850082145E1
9.672934917E0,1.496282137E1,-1.208485457E1,4.350941234E0,1.971954419E1
9.682870917E0,1.482583280E1,-1.277616620E1,6.201829986E0,2.053042708E1
9.692805917E0,1.428648212E1,-1.306242951E1,8.146915044E0,2.100244892E1
9.702740917E0,1.332473560E1,-1.320029399E1,1.002281994E1,2.126624696E1
9.712676917E0,1.148928291E1,-1.277282861E1,1.171871128E1,2.079608056E1
9.722611917E0,9.132680174E0,-1.143949036E1,1.263167449E1,1.933460595E1
9.732546917E0,6.968519241E0,-9.627525356E0,1.222789150E1,1.705200385E1
9.742482917E0,5.062569598E0,-8.403064020E0,1.149956232E1,1.511558895E1
9.752417917E0,3.650436612E0,-7.689383283E0,1.073290815E1,1.369845320E1
9.762352917E0,3.140260615E0,-6.645057119E0,9.937502046E0,1.236009578E1
9.772288917E0,3.458097131E0,-5.358461514E0,9.211436321E0,1.120366479E1
9.782223917E0,3.769114040E0,-4.203721207E0,8.201450270E0,9.956971385E0
9.792159917E0,4.335219825E0,-3.193936300E0,6.794390329E0,8.669434812E0
9.802094917E0,5.219075003E0,-2.220746777E0,5.532474067E0,7.923302937E0
9.812029917E0,5.841590631E0,-1.452666469E0,4.527654031E0,7.532202334E0
9.821965917E0,6.832411264E0,-1.138173391E0,3.640503947E0,7.824995293E0
9.831900917E0,7.602343969E0,-9.323174858E-1,2.697811162E0,8.120531681E0
9.841835917E0,7.321775267E0,-1.469347991E0,2.132491243E0,7.766266508E0
9.851771917E0,6.828227581E0,-2.297445289E0,2.141722242E0,7.515977709E0
9.861706917E0,6.121703836E0,-2.681262957E0,2.560357740E0,7.156805199E0
9.871641917E0,5.831162707E0,-2.748759121E0,3.225314214E0,7.208383105E0
9.881577917E0,6.634750816E0,-2.301959340E0,3.700332658E0,7.937971843E0
9.891512917E0,7.522130111E0,-1.786675799E0,3.638769078E0,8.544898608E0
9.901447917E0,8.296866304E0,-1.662227755E0,2.747258141E0,8.896539713E0
9.911383917E0,8.563689373E0,-1.595986403E0,1.656915267E0,8.867317321E0
9.921318917E0,7.510380716E0,-1.901729708E0,1.323412598E0,7.859632007E0
9.931253917E0,5.702691193E0,-2.716394198E0,1.932059508E0,6.605477895E0
9.941189917E0,3.876509265E0,-3.575320356E0,2.949190564E0,6.042182116E0
9.951124917E0,2.449074116E0,-4.566898203E0,3.643856448E0,6.334999056E0
9.961059917E0,8.908309060E-1,-5.220711638E0,3.882336308E0,6.566730155E0
9.970995917E0,-7.378993195E-1,-5.809076604E0,3.720323411E0,6.937627309E0
9.980930917E0,-1.785288255E0,-5.930187643E0,3.278292911E0,7.007252246E0
9.990865917E0,-1.821505909E0,-5.815955268E0,2.760617275E0,6.690607386E0
1.000080192E1,-5.789515328E-1,-5.575837018E0,2.539812963E0,6.154331257E0
1.001073692E1,1.030208062E0,-4.823187513E0,2.305168877E0,5.444104149E0
1.002067192E1,2.279010188E0,-3.947276947E0,1.954925191E0,4.959497478E0
1.003060792E1,2.454738314E0,-3.496223316E0,1.144344688E0,4.422538008E0
1.004054308E1,1.765701837E0,-3.952680359E0,5.450321272E-2,4.329475210E0
1.005047808E1,8.079524714E-1,-5.112681406E0,-3.471280702E-1,5.187754451E0
1.006041408E1,-1.065918177E-1,-6.109593083E0,-9.781666001E-1,6.188319590E0
1.007034908E1,-2.897891772E-1,-7.753132551E0,-8.648709496E-1,7.806602583E0
1.008028408E1,-5.110331994E-1,-8.534507089E0,-3.923563564E-1,8.558791368E0
1.009022008E1,-2.161265391E-1,-8.582396370E0,-1.456095861E0,8.707723772E0
1.010015508E1,2.277923191E-1,-8.512726210E0,-3.702993141E0,9.286040872E0
1.011009008E1,5.201414073E-1,-8.185117242E0,-6.391323043E0,1.039787005E1
1.012002608E1,3.716086811E-1,-7.726257579E0,-8.362767348E0,1.139162091E1
1.012996108E1,1.496758568E-1,-7.279338514E0,-8.902071251E0,1.150034976E1
1.013989608E1,1.385310638E-1,-7.643532926E0,-8.416133716E0,1.136987657E1
1.014983208E1,2.499450803E-1,-8.187737964E0,-7.782687303E0,1.129919232E1
1.015976708E1,6.980230629E-2,-8.646935597E0,-7.911192731E0,1.172012534E1
1.016970208E1,6.071175706E-1,-9.226831455E0,-8.749651880E0,1.273025603E1
1.017963808E1,1.832819102E0,-7.713608297E0,-9.960930669E0,1.273102975E1
1.018957308E1,3.305387739E0,-6.056458849E0,-1.165884983E1,1.354751126E1
1.019950808E1,4.328227724E0,-5.908531895E0,-1.288087697E1,1.481760088E1
1.020944408E1,5.132118720E0,-5.775891316E0,-1.237105122E1,1.458569406E1
1.021937908E1,5.613406549E0,-5.886884333E0,-1.199293283E1,1.449124488E1
1.022931408E1,6.402226346E0,-5.966156205E0,-1.206845079E1,1.490741515E1
1.023925008E1,6.828653258E0,-6.010796188E0,-1.192965310E1,1.500255975E1
1.024918508E1,6.846239344E0,-6.526527041E0,-1.140958536E1,1.482043139E1
1.025912008E1,7.138553349E0,-6.765451874E0,-1.079355079E1,1.460243204E1
1.026905608E1,7.959470851E0,-6.155126520E0,-1.079975819E1,1.476053982E1
1.027899108E1,8.956079643E0,-4.642430781E0,-1.068920840E1,1.469771078E1
1.028892708E1,9.342839629E0,-4.016551250E0,-1.056674080E1,1.466551559E1
1.029886208E1,9.353898468E0,-4.118311513E0,-1.012405512E1,1.438584020E1
1.030879708E1,8.706714606E0,-4.799738424E0,-9.578487682E0,1.380549870E1
1.031873308E1,7.721862811E0,-5.892735642E0,-9.226910977E0,1.339729020E1
1.032866808E1,6.965377532E0,-6.761742400E0,-8.837422096E0,1.312774443E1
1.033860308E1,6.232568799E0,-7.483261914E0,-8.362346349E0,1.283639198E1
1.034853908E1,5.298918148E0,-8.694954686E0,-7.496817514E0,1.264448668E1
1.035847408E1,5.145796527E0,-1.014440928E1,-5.731591641E0,1.273732328E1
1.036840908E1,5.526885298E0,-1.093180703E1,-3.796773124E0,1.282444355E1
1.037834508E1,6.630896916E0,-1.103616580E1,-2.163205497E0,1.305546658E1
1.038828008E1,8.849783694E0,-1.074114336E1,-1.178314526E0,1.396707762E1
1.039821508E1,1.154525831E1,-1.014971972E1,-1.083476781E0,1.541050686E1
1.040815108E1,1.413721908E1,-1.008035420E1,-8.003101605E-1,1.738145565E1
1.041808608E1,1.647563522E1,-1.067320457E1,-4.124280936E-1,1.963501843E1
1.042802108E1,1.887413385E1,-1.170830207E1,2.586439830E-1,2.221225253E1
1.043795708E1,2.048738299E1,-1.376452340E1,2.296230238E0,2.478845779E1
1.044789208E1,2.031224484E1,-1.602848110E1,6.016258072E0,2.656491781E1
1.045782708E1,1.839905693E1,-1.690312282E1,1.048951663E1,2.709743191E1
1.046776308E1,1.463421253E1,-1.659417349E1,1.452840833E1,2.646887642E1
1.047769808E1,9.368519431E0,-1.519460734E1,1.760632418E1,2.507245300E1
1.048763308E1,3.907951498E0,-1.205004727E1,1.897211213E1,2.281264480E1
1.049756908E1,3.944519985E-1,-8.714009008E0,1.731706593E1,1.938995404E1
1.050750408E1,-1.159875332E0,-7.390649620E0,1.308332044E1,1.507117402E1
1.051743908E1,-1.548760781E0,-6.911657993E0,8.133424348E0,1.078528014E1
1.052737508E1,-6.057259333E-1,-5.765669798E0,5.039511688E0,7.681570815E0
1.053731008E1,1.114973978E0,-4.153063855E0,3.891881011E0,5.799814148E0
1.054724508E1,2.829223825E0,-2.688119402E0,3.933606157E0,5.541096531E0
1.055718108E1,4.095103329E0,-1.300600855E0,4.111605341E0,5.946993555E0
1.056711608E1,4.331992162E0,-4.967449433E-1,4.025005154E0,5.934102975E0
1.057705108E1,4.066412212E0,-4.897464108E-1,3.636923697E0,5.477478781E0
1.058698708E1,3.371284105E0,-6.902199537E-1,3.043974515E0,4.594316157E0
1.059692208E1,2.441561029E0,-1.295084007E0,2.522637352E0,3.741946292E0
1.060685808E1,1.919043898E0,-1.793745083E0,2.105586450E0,3.366562817E0
1.061679308E1,2.006929888E0,-2.115584604E0,1.514295537E0,3.285811432E0
1.062672808E1,2.376454622E0,-2.318922113E0,9.809879547E-1,3.462264245E0
1.063666308E1,3.233672808E0,-1.788034108E0,7.834064448E-1,3.777225365E0
1.064659908E1,4.423235623E0,-9.461993605E-1,9.097174126E-1,4.613880404E0
1.065653408E1,5.671443672E0,-4.503888023E-1,1.437470725E0,5.868087038E0
1.066647008E1,6.228306763E0,-2.013365918E-1,2.189079134E0,6.604877668E0
1.067640508E1,6.479929410E0,-3.922323954E-1,3.207106569E0,7.240777855E0
1.068634008E1,6.486271300E0,-7.101209521E-1,4.090981042E0,7.701435777E0
1.069627608E1,6.145740570E0,-1.074014232E0,4.425925927E0,7.649343373E0
1.070621108E1,5.745344877E0,-1.562802284E0,4.827750680E0,7.665410319E0
1.071614608E1,5.126224726E0,-2.313412281E0,5.387181868E0,7.787925578E0
1.072608208E1,4.206585174E0,-2.938405960E0,5.442919866E0,7.480305146E0
1.073601708E1,3.370639742E0,-3.216797744E0,4.844524587E0,6.721489305E0
1.074595208E1,2.659437640E0,-3.535147646E0,4.710106747E0,6.461809577E0
1.075588808E1,2.301424904E0,-4.049688590E0,5.020770192E0,6.848698241E0
1.076582308E1,2.285885344E0,-4.377406901E0,5.352729489E0,7.282765681E0
1.077575808E1,2.219033543E0,-4.915919091E0,5.615755960E0,7.786339664E0
1.078569408E1,2.261677287E0,-5.342503878E0,5.653768709E0,8.100779743E0
1.079562908E1,2.343195659E0,-5.694717345E0,5.215443882E0,8.069772389E0
1.080556408E1,2.394766347E0,-6.232911445E0,4.683388188E0,8.155870025E0
1.081550008E1,2.072381866E0,-6.762455760E0,4.095897381E0,8.173245981E0
1.082543508E1,1.635382018E0,-7.316457224E0,3.057153554E0,8.096370082E0
1.083537008E1,1.324935213E0,-7.898166304E0,1.532293267E0,8.153797087E0
1.084530608E1,1.439098590E0,-8.032889661E0,2.031451356E-1,8.163307479E0
1.085524108E1,1.425592691E0,-7.635188364E0,-9.146237382E-1,7.820802546E0
1.086517608E1,1.379914243E0,-7.125874246E0,-2.415685930E0,7.649691863E0
1.087511208E1,8.356320208E-1,-7.338333412E0,-3.936433285E0,8.369284626E0
1.088504708E1,4.300235349E-1,-7.633623649E0,-4.234868156E0,8.740208153E0
1.089498208E1,-2.493720531E-2,-8.268961052E0,-4.410789825E0,9.371841101E0
1.090491808E1,-7.239554644E-2,-9.667159538E0,-5.029453892E0,1.089745939E1
1.091485308E1,-3.049206018E-2,-9.942755184E0,-6.292640753E0,1.176675988E1
1.092478808E1,-1.837510908E-1,-9.694543219E0,-7.664855382E0,1.235993288E1
1.093472408E1,5.016326308E-3,-9.936261266E0,-8.748668963E0,1.323890183E1
1.094465908E1,4.901785201E-1,-9.727943684E0,-9.385862272E0,1.352655070E1
1.095459408E1,1.227612401E0,-8.967981066E0,-1.015650717E1,1.360464459E1
1.096453008E1,2.067532770E0,-8.450981367E0,-1.122022796E1,1.419814401E1
1.097446508E1,2.779349999E0,-8.093097271E0,-1.230583956E1,1.498855220E1
1.098440108E1,3.906453441E0,-7.859094039E0,-1.355969310E1,1.615212105E1
1.099433608E1,4.881428704E0,-7.838558618E0,-1.371263053E1,1.653201692E1
1.100427108E1,6.064561336E0,-7.489097435E0,-1.316135621E1,1.631216668E1
1.101420708E1,7.709449757E0,-6.587912865E0,-1.238741992E1,1.600888452E1
1.102414208E1,9.172773362E0,-5.417619549E0,-1.210881412E1,1.612804242E1
1.103407708E1,1.010352087E1,-4.461035534E0,-1.229964502E1,1.653067572E1
1.104401254E1,9.590999554E0,-4.411653458E0,-1.265677073E1,1.648162019E1
1.105394754E1,8.581528058E0,-5.019301372E0,-1.330617069E1,1.660994246E1
1.106388254E1,8.387552526E0,-5.078192189E0,-1.407358968E1,1.715240507E1
1.107381854E1,9.556589275E0,-4.041499272E0,-1.410977108E1,1.751421579E1
1.108375354E1,1.052573311E1,-2.821048541E0,-1.279460715E1,1.680628884E1
1.109368854E1,9.858237190E0,-3.430296544E0,-1.096758264E1,1.514066193E1
1.110362454E1,8.612777917E0,-5.154621145E0,-8.720835632E0,1.329673030E1
1.111355954E1,6.922220403E0,-7.264003606E0,-6.630377684E0,1.202683632E1
1.112349454E1,5.238733342E0,-8.323716134E0,-4.679640123E0,1.089163023E1
1.113343054E1,4.506766607E0,-8.950283298E0,-3.206656626E0,1.052146202E1
1.114336554E1,4.722303747E0,-8.958379937E0,-2.359306200E0,1.039803104E1
1.115330054E1,5.406091763E0,-8.373933191E0,-2.390265745E0,1.024997344E1
1.116323654E1,6.471315876E0,-8.402212665E0,-2.692453358E0,1.094186510E1
1.117317154E1,7.757334360E0,-9.022753689E0,-2.319507711E0,1.212297144E1
1.118310654E1,9.092620899E0,-9.663448895E0,-1.093675495E0,1.331368189E1
1.119304254E1,1.037463755E1,-1.022401912E1,2.492703116E-1,1.456797196E1
1.120297754E1,1.203598822E1,-1.076192671E1,1.298850784E0,1.619787308E1
1.121291254E1,1.367235725E1,-1.152163556E1,2.199868709E0,1.801446255E1
1.122284854E1,1.529420179E1,-1.289575696E1,4.577812616E0,2.052241517E1
1.123278354E1,1.522028597E1,-1.492466361E1,8.336229760E0,2.288876177E1
1.124271854E1,1.345896311E1,-1.501041303E1,1.197554204E1,2.344930265E1
1.125265454E1,1.135770887E1,-1.158618648E1,1.313091677E1,2.087242782E1
1.126258954E1,9.553979663E0,-7.968103681E0,1.015512138E1,1.605913117E1
1.127252454E1,7.611556842E0,-7.550778544E0,6.115380072E0,1.234293027E1
1.128246054E1,5.306444099E0,-9.100970138E0,5.202523289E0,1.174956403E1
1.129239554E1,3.136838239E0,-9.568791829E0,7.580440300E0,1.260415036E1
1.130233154E1,8.314676338E-1,-9.044421716E0,1.052904029E1,1.390516423E1
1.131226654E1,-1.105942953E0,-8.486479229E0,1.252875063E1,1.517277271E1
1.132220154E1,-1.794701688E0,-7.311041533E0,1.329560360E1,1.527891873E1
1.133213754E1,-6.931593490E-1,-5.505816026E0,1.186907126E1,1.310226441E1
1.134207254E1,1.287783174E0,-3.858717942E0,8.867393169E0,9.755959782E0
1.135200754E1,3.342171988E0,-2.085617623E0,5.523888600E0,6.784781480E0
1.136194354E1,4.799098738E0,-7.711103350E-1,2.479648038E0,5.456611974E0
1.137187854E1,5.676396264E0,-3.440566009E-1,3.521134794E-1,5.697704221E0
1.138181354E1,6.028177621E0,-3.284860504E-1,-5.487623584E-1,6.062010281E0
1.139174954E1,5.902774141E0,-7.348114049E-1,-1.403016007E-1,5.949989488E0
1.140168454E1,5.329778582E0,-1.026965781E0,1.248123849E0,5.569471393E0
1.141161954E1,5.002923321E0,-1.204283765E0,2.673951014E0,5.799099513E0
1.142155554E1,4.583276839E0,-1.501610003E0,3.725602570E0,6.094372297E0
1.143149054E1,4.120738108E0,-1.774872025E0,4.328048215E0,6.233991868E0
1.144142554E1,4.270266030E0,-1.672614748E0,4.466500341E0,6.401752679E0
1.145136154E1,5.140555083E0,-1.363934387E0,4.157749813E0,6.750741224E0
1.146129654E1,6.002224755E0,-1.117954304E0,3.745441003E0,7.162740547E0
1.147123154E1,6.233475702E0,-1.185089695E0,3.216148995E0,7.113667920E0
1.148116754E1,5.954504458E0,-1.400263138E0,2.701842817E0,6.687063242E0
1.149110254E1,5.087144276E0,-1.909622279E0,2.713311546E0,6.073528931E0
1.150103754E1,3.930383171E0,-2.463983347E0,3.137563879E0,5.600306501E0
1.151097354E1,3.083422755E0,-2.870781741E0,3.956160914E0,5.779281345E0
1.152090854E1,2.609668479E0,-3.415811237E0,5.130630603E0,6.693392740E0
1.153084354E1,1.950980220E0,-3.947312615E0,6.069201102E0,7.498186628E0
1.154077954E1,1.625454031E0,-4.295851691E0,6.461890165E0,7.927954784E0
1.155071454E1,1.763713784E0,-4.423448462E0,5.990274800E0,7.652514279E0
1.156064954E1,2.318386508E0,-4.498094017E0,4.874832168E0,7.026503714E0
1.157058554E1,2.804426368E0,-4.314294394E0,3.447876198E0,6.194012726E0
1.158052054E1,2.800026923E0,-4.275098754E0,2.334112302E0,5.618247090E0
1.159045654E1,1.970680075E0,-4.540192215E0,1.678956639E0,5.226453932E0
1.160039154E1,6.408437258E-1,-4.949113149E0,1.307932533E0,5.158981407E0
1.161032654E1,-3.619227684E-1,-5.210528128E0,9.632021865E-1,5.311153350E0
1.162026254E1,-5.937520051E-1,-5.367407169E0,7.746332824E-1,5.455424629E0
1.163019754E1,-4.895516986E-1,-5.472960522E0,6.152500243E-1,5.529149151E0
1.164013254E1,-1.245223045E-1,-5.829619042E0,5.354823084E-1,5.855485059E0
1.165006854E1,4.639853328E-1,-6.293237754E0,7.029220064E-1,6.349348247E0
1.166000354E1,3.317102051E-1,-6.813305486E0,-1.781248999E-1,6.823700740E0
1.166993854E1,-3.061836004E-2,-7.257454725E0,-1.863784494E0,7.493015362E0
1.167987454E1,-3.918698680E-1,-7.693817226E0,-3.703743339E0,8.547871093E0
1.168980954E1,-9.892506552E-1,-8.244151901E0,-5.105622647E0,9.747411966E0
1.169974454E1,-1.064770954E0,-8.232835785E0,-6.057780905E0,1.027667416E1
1.170968054E1,-5.266897041E-1,-8.389975612E0,-6.236598700E0,1.046729460E1
1.171961554E1,4.946867234E-1,-8.017604454E0,-6.025128883E0,1.004135818E1
1.172955054E1,1.698458857E0,-6.764578884E0,-6.726373762E0,9.689602363E0
1.173948654E1,2.772597635E0,-5.922120239E0,-8.207993889E0,1.049428270E1
1.174942154E1,3.194685913E0,-5.922049488E0,-9.576007293E0,1.170370044E1
1.175935654E1,2.858980891E0,-6.328536226E0,-9.608280416E0,1.185509152E1
1.176929254E1,1.968838786E0,-7.492325683E0,-9.216546203E0,1.203976720E1
1.177922754E1,7.183830678E-1,-9.018493407E0,-9.646827600E0,1.322537638E1
1.178916254E1,3.035698950E-2,-1.021488577E1,-9.715251718E0,1.409719578E1
1.179909854E1,-3.780207378E-1,-1.070289673E1,-9.316336539E0,1.419468297E1
1.180903354E1,1.074148133E0,-9.935157312E0,-9.031530944E0,1.346958411E1
1.181896854E1,4.224620910E0,-7.690449815E0,-1.004837812E1,1.334017777E1
1.182890454E1,7.985103291E0,-4.680116963E0,-1.212679899E1,1.525531458E1
1.183883954E1,1.125301915E1,-2.392148841E0,-1.452818848E1,1.853162369E1
1.184877554E1,1.305940767E1,-1.385905885E0,-1.659415946E1,2.116211218E1
1.185871054E1,1.373814778E1,-1.471972221E0,-1.774614046E1,2.249064045E1
1.186864554E1,1.336570587E1,-2.337012228E0,-1.709593125E1,2.182600708E1
1.187858154E1,1.164181221E1,-3.900232296E0,-1.565208998E1,1.989300189E1
1.188851654E1,9.530890177E0,-5.539421729E0,-1.405430322E1,1.786187280E1
1.189845154E1,7.577590367E0,-6.847087775E0,-1.159419600E1,1.545082093E1
1.190838754E1,5.609626324E0,-8.213719482E0,-8.756829922E0,1.325198723E1
1.191832254E1,4.072928349E0,-9.235293546E0,-6.084367025E0,1.178553835E1
1.192825754E1,3.698944529E0,-9.547091058E0,-3.916915280E0,1.096227000E1
1.193819354E1,4.861541154E0,-9.133656659E0,-2.783452406E0,1.071475028E1
1.194812854E1,6.635225610E0,-8.279869618E0,-3.065197276E0,1.104436029E1
1.195806354E1,7.740478592E0,-8.316524643E0,-4.083726402E0,1.207296204E1
1.196799954E1,8.566494282E0,-9.902381330E0,-3.955693721E0,1.367806613E1
1.197793454E1,9.091122258E0,-1.221381842E1,-1.910025737E0,1.534516415E1
1.198786954E1,9.682404399E0,-1.375825402E1,1.282725332E0,1.687257813E1
1.199780554E1,1.132521004E1,-1.415466717E1,4.983939165E0,1.880038922E1
1.200774054E1,1.375667878E1,-1.398810222E1,8.908574524E0,2.154706278E1
1.201767554E1,1.488082236E1,-1.350912521E1,1.230579278E1,2.356624438E1
1.202761154E1,1.507129424E1,-1.181891151E1,1.431410788E1,2.391075623E1
1.203754654E1,1.556079273E1,-9.312975560E0,1.502770675E1,2.355210722E1
1.204748254E1,1.549467709E1,-6.318549181E0,1.474239771E1,2.230128634E1
1.205741854E1,1.441230485E1,-4.613384153E0,1.349491881E1,2.027586442E1
1.206735354E1,1.177730623E1,-4.916471652E0,1.188896349E1,1.744202077E1
1.207728854E1,8.195056340E0,-5.580450472E0,9.821617248E0,1.395580672E1
1.208722454E1,4.957658855E0,-6.033701486E0,7.480468699E0,1.081394225E1
1.209715954E1,2.754577978E0,-6.338858900E0,5.831656796E0,9.043066570E0
1.210709554E1,1.769408972E0,-5.957032210E0,4.990064124E0,7.969804315E0
1.211703054E1,1.781644270E0,-4.859778219E0,4.649075557E0,6.957413613E0
1.212696554E1,2.470252731E0,-3.498791121E0,4.379655740E0,6.125771157E0
1.213690154E1,3.304637541E0,-2.102708742E0,4.069747463E0,5.648438523E0
1.214683654E1,3.943540576E0,-9.794878516E-1,3.691973478E0,5.490134506E0
1.215677154E1,3.983617977E0,-4.245403084E-1,3.148119273E0,5.095105653E0
1.216670754E1,3.379838582E0,-6.170125213E-1,2.380566384E0,4.179845643E0
1.217664254E1,2.715377367E0,-1.163880674E0,1.688007544E0,3.402537573E0
1.218657754E1,2.320584476E0,-1.492818714E0,1.242953156E0,3.026310059E0
1.219651354E1,2.179726805E0,-1.752171965E0,1.459841003E0,3.154750591E0
1.220644854E1,1.998670696E0,-2.172031869E0,1.834037077E0,3.475068200E0
1.221638354E1,2.319317969E0,-2.305153089E0,1.901352562E0,3.782606003E0
1.222631954E1,2.992426046E0,-2.004506217E0,1.662398493E0,3.966891424E0
1.223625454E1,2.789865047E0,-1.616291444E0,1.180007295E0,3.433389321E0
1.224618954E1,2.626483317E0,-1.899046420E0,6.629005927E-1,3.308206329E0
1.225612554E1,2.435786904E0,-2.033185641E0,1.592547655E-1,3.176832348E0
1.226606054E1,2.597577606E0,-1.791192189E0,-1.135733932E-1,3.157321300E0
1.227599554E1,2.889310398E0,-1.466535480E0,-4.119363427E-1,3.266271948E0
1.228593154E1,1.661496268E0,-1.924345568E0,-1.092608086E0,2.767213064E0
1.229586654E1,9.158909029E-1,-2.632719957E0,-2.094255423E0,3.486542169E0
1.230580154E1,1.102995372E-1,-3.367662925E0,-2.897495915E0,4.443962437E0
1.231573754E1,-6.325377560E-1,-3.642872654E0,-3.143349699E0,4.852965332E0
1.232567254E1,-1.218539277E0,-3.473789304E0,-3.017971362E0,4.760273231E0
1.233560754E1,-1.934967620E0,-3.124796484E0,-2.841312944E0,4.645590597E0
1.234554354E1,-2.507912309E0,-2.669524087E0,-2.555368896E0,4.466082533E0
1.235547854E1,-2.610224549E0,-2.108777860E0,-2.116040686E0,3.967095215E0
1.236541454E1,-2.384020334E0,-1.763826050E0,-1.619034957E0,3.378743773E0
1.237534954E1,-2.097789187E0,-1.807872541E0,-2.126939312E0,3.491846708E0
1.238528454E1,-2.008946008E0,-1.936518887E0,-2.423115402E0,3.695599778E0
1.239522054E1,-2.484468482E0,-1.975101154E0,-2.334049590E0,3.939720256E0
1.240515554E1,-2.896151640E0,-1.773436534E0,-2.313544428E0,4.109167712E0
1.241509054E1,-2.958041202E0,-1.528742253E0,-2.107311963E0,3.940536047E0
1.242502654E1,-2.739188983E0,-1.190536376E0,-1.903702558E0,3.541838023E0
1.243496154E1,-2.188328059E0,-1.067076511E0,-1.689729549E0,2.963548198E0
1.244489654E1,-1.091933317E0,-6.370827967E-1,-1.583047684E0,2.025890626E0
1.245483254E1,4.096530050E-2,-4.369285119E-1,-2.072758427E0,2.118705306E0
1.246476754E1,5.826984286E-2,-5.293197817E-1,-2.488320043E0,2.544663326E0
1.247470254E1,-4.257544827E-1,-9.765376389E-2,-1.857092648E0,1.907772586E0
1.248463854E1,-2.070677403E-1,-1.239814371E-1,-9.125199831E-1,9.438967980E-1
1.249457354E1,5.033160442E-1,-1.166065779E0,-3.536846262E-1,1.318381301E0
1.250450854E1,3.320969984E-1,-2.188799930E-1,6.298269868E-2,4.026955277E-1
1.251444454E1,1.431266829E-1,7.774305904E-1,1.114268804E-1,7.983104158E-1
1.252437954E1,1.326820940E-2,6.012633383E-1,-3.899689382E-1,7.167771063E-1
1.253431454E1,2.403655869E-1,3.508890724E-1,-8.187388301E-1,9.226223650E-1
1.254425054E1,3.094054163E-3,2.907030970E-1,-1.134201377E0,1.170867468E0
1.255418554E1,-2.765814865E-1,4.921425998E-2,-1.480165340E0,1.506588462E0
1.256412054E1,-2.273777515E-2,1.165759385E-2,-1.146233777E0,1.146518547E0
1.257405654E1,1.162023014E-1,-4.964613533E-1,-7.050853300E-1,8.701276761E-1
1.258399154E1,6.323176083E-1,-8.660965991E-1,-7.338811129E-1,1.299434633E0
1.259392654E1,1.363234475E0,-3.827341783E-1,-6.306017429E-1,1.550016853E0
1.260386254E1,1.562528635E0,2.647163165E-1,-3.023244381E-1,1.613372408E0
1.261379754E1,1.269721709E0,6.433486730E-1,-1.243609214E-1,1.428830421E0
1.262373354E1,1.084803807E0,2.558940375E-1,2.432663906E-1,1.140815320E0
1.263366854E1,1.393538255E0,1.653101420E-1,1.044477607E0,1.749345530E0
1.264360354E1,1.685588989E0,1.866641736E-1,8.520176733E-1,1.897890373E0
1.265353954E1,1.913588738E0,1.735740119E-1,-3.249654418E-1,1.948730955E0
1.266347454E1,9.200077812E-1,1.094771263E0,-1.723817647E-2,1.430117335E0
1.267340954E1,2.125183685E-1,1.900977756E0,9.200511968E-1,2.122586792E0
1.268334554E1,-9.474974424E-2,2.031081228E0,3.202005458E-1,2.058348089E0
1.269328054E1,-3.162991373E-1,1.622069077E0,-6.126303256E-2,1.653755241E0
1.270321554E1,-3.736011198E-1,1.121590687E0,-1.988152725E-1,1.198778953E0
1.271315154E1,-1.444852835E-1,5.499195224E-1,-6.270103830E-1,8.464215845E-1
1.272308654E1,1.270005007E-1,2.745291138E-1,-8.949338973E-1,9.446703351E-1
1.273302154E1,5.351969643E-1,3.481297714E-1,-5.001679033E-1,8.110475077E-1
1.274295754E1,1.150588345E0,4.543543839E-1,5.870165974E-1,1.369262550E0
1.275289254E1,1.605655358E0,6.177226657E-1,2.028398525E0,2.659720098E0
1.276282754E1,1.970515768E0,4.810942858E-1,3.033162428E0,3.648898247E0
1.277276354E1,1.320700221E0,-3.495056212E-2,4.078370352E0,4.287024066E0
1.278269854E1,6.733852351E-1,6.450999141E-2,1.541989120E0,1.683846686E0
1.279263354E1,4.550909869E-2,2.386675555E-1,1.550883905E0,1.569800677E0
1.280256954E1,-6.948317988E-1,3.118419510E-1,8.908233047E-1,1.172008017E0
1.281250454E1,-4.777645889E-1,2.612611967E-1,3.914108616E-1,6.706108245E-1
1.282243954E1,2.130283188E-1,1.375960940E-1,1.275114012E-1,2.838536720E-1
1.283237554E1,8.375862334E-1,4.168304622E-1,4.800739467E-1,1.051555670E0
1.284231054E1,1.419917969E0,9.053436953E-1,1.201342031E0,2.068583312E0
1.285224654E1,1.828622263E0,1.066147388E0,1.662365749E0,2.691466053E0
1.286218154E1,2.139988104E0,8.788809514E-1,1.609854244E0,2.818441325E0
1.287211654E1,1.978796887E0,4.215327930E-1,8.896994698E-1,2.210179215E0
1.288205254E1,1.271196085E0,1.401402175E-2,-5.554620981E-2,1.272486252E0
1.289198754E1,4.540033317E-1,-1.307542670E-1,-7.100636494E-1,8.528810525E-1
1.290192254E1,-9.838700473E-2,-6.854457021E-2,-7.383045316E-1,7.479785706E-1
1.291185854E1,-5.588776030E-2,1.399700636E-1,1.543454432E-1,2.157256969E-1
1.292179354E1,3.464957669E-1,2.238928109E-1,1.294577054E0,1.358718902E0
1.293172854E1,6.519947315E-1,1.306028241E-1,1.769744602E0,1.890542299E0
1.294166454E1,9.029192204E-1,1.080682397E-1,1.731105616E0,1.955420292E0
1.295159954E1,9.891707676E-1,1.376709384E-1,1.192087058E0,1.555147468E0
1.296153454E1,8.356385259E-1,6.378142834E-2,5.056607777E-1,9.788016339E-1
1.297147054E1,5.006138997E-1,-6.174250424E-2,5.494511604E-2,5.073907559E-1
1.298140554E1,1.535654247E-1,-2.402673537E-1,-3.151532292E-2,2.868866614E-1
1.299134054E1,-1.643232782E-1,-3.698989552E-1,9.252750993E-2,4.151972025E-1
1.300127654E1,-2.717406314E-1,-3.712794828E-1,3.158753604E-1,5.580937810E-1
1.301121154E1,-5.124938339E-2,-2.698355538E-1,5.888847828E-1,6.497868980E-1
1.302114654E1,3.172937853E-1,-1.427357966E-1,7.136959398E-1,7.939840982E-1
1.303108254E1,5.687387860E-1,-6.567417204E-2,4.476248235E-1,7.267357746E-1
1.304101742E1,7.025326549E-1,-8.655048609E-3,2.779064655E-2,7.031353790E-1
1.305095242E1,6.525271936E-1,-5.080294847E-2,-2.928314835E-1,7.170236786E-1
1.306088842E1,5.860141288E-1,-2.241483343E-1,-3.535630041E-1,7.201818054E-1
1.307082342E1,5.527479303E-1,-3.833533984E-1,-1.261875916E-1,6.844073427E-1
1.308075942E1,4.287594400E-1,-4.357941520E-1,1.494343668E-1,6.293503240E-1
1.309069442E1,5.499399146E-1,-4.296323562E-1,6.582292521E-1,9.593141401E-1
1.310062942E1,5.109756774E-1,-4.750652218E-1,8.830798370E-1,1.125439073E0
1.311056542E1,3.965020323E-1,-5.269306093E-1,5.838918453E-1,8.807947637E-1
1.312050042E1,1.836416017E-1,-4.761282456E-1,7.186637342E-2,5.153514526E-1
1.313043542E1,7.875242002E-2,-3.731160933E-1,-4.916350615E-1,6.221917682E-1
1.314037142E1,-1.856958747E-2,-3.186422628E-1,-1.015070205E0,1.064070131E0
1.315030642E1,-4.497380072E-1,-1.732319498E-1,-2.087958264E0,2.142858674E0
1.316024142E1,-5.993305412E-1,9.855598927E-2,-1.149901736E0,1.300455452E0
1.317017742E1,-1.057922110E-1,-1.126717526E-1,9.046531391E-1,9.177604360E-1
1.318011242E1,-1.476614179E-1,-3.922207010E-1,7.224053675E-1,8.351709332E-1
1.319004742E1,-6.055747097E-1,-4.655769449E-1,-1.002651304E-1,7.704126927E-1
1.319998342E1,-7.608462788E-1,-3.213021612E-1,-7.316024530E-1,1.103342326E0
1.320991842E1,-4.845903361E-1,-4.102698863E-2,-9.074983943E-1,1.029594261E0