"Time (s)","Linear Acceleration x (m/s^2)","Linear Acceleration y (m/s^2)","Linear Acceleration z (m/s^2)","Absolute acceleration (m/s^2)"
1.405733333E-2,-4.585146779E-1,1.065348074E-1,-1.649184371E0,1.715049406E0
2.399333334E-2,5.024515334E-1,2.254686356E-1,-1.740714930E0,1.825755218E0
3.393033333E-2,1.097448118E0,6.396330598E-1,-1.294609213E0,1.813707760E0
4.386633333E-2,1.290835713E0,9.980787814E-1,-1.254429486E0,2.058157289E0
5.380233334E-2,1.405949847E0,1.065588102E0,-1.792475068E0,2.514983071E0
6.373833334E-2,1.047883610E0,1.145687355E0,-1.806743444E0,2.382221956E0
7.367433334E-2,7.304116675E-1,9.550213471E-1,-1.465386502E0,1.895501142E0
8.361133334E-2,6.981189573E-1,6.593951869E-1,-1.528997192E0,1.805548256E0
9.354733334E-2,3.783151451E-1,3.468977630E-1,-1.880252885E0,1.949053954E0
1.034833333E-1,-1.715584767E-1,7.966889799E-2,-2.354174391E0,2.361761315E0
1.134193333E-1,-5.537836549E-1,8.002587050E-2,-2.818737429E0,2.873736447E0
1.233563333E-1,-9.156935593E-1,3.742583469E-1,-3.405184507E0,3.545961863E0
1.332923333E-1,-8.057056788E-1,6.488374543E-1,-3.859799092E0,3.996023113E0
1.432283333E-1,-4.515021122E-1,1.065266213E0,-4.006360137E0,4.170080073E0
1.531643333E-1,-9.071209565E-1,1.918257447E0,-3.953397812E0,4.486862414E0
1.631003333E-1,-9.476541477E-1,2.209233902E0,-3.988089927E0,4.656567844E0
1.730373333E-1,-8.916214496E-1,2.000174600E0,-3.720951110E0,4.317541476E0
1.829733333E-1,-7.680814773E-1,1.726747102E0,-3.878101462E0,4.314078773E0
1.929093333E-1,-7.418450207E-1,1.576882526E0,-4.515681857E0,4.840276352E0
2.028453333E-1,-6.842534548E-1,1.481445149E0,-4.774707663E0,5.045861253E0
2.127823333E-1,-4.027237621E-1,1.493424340E0,-4.571013474E0,4.825626059E0
2.227183333E-1,-3.784820831E-1,1.581438092E0,-4.166815921E0,4.472868212E0
2.326543333E-1,-6.933055294E-1,1.609236486E0,-3.125956571E0,3.583562349E0
2.425903333E-1,-6.643729216E-1,1.437682248E0,-1.607618269E0,2.256714010E0
2.525273333E-1,4.998843133E-1,1.260756174E0,-3.287772417E-2,1.356639746E0
2.624633333E-1,2.608987863E0,1.375361162E0,1.713090345E0,3.410735188E0
2.723993333E-1,4.436063830E0,1.466261684E0,3.471825224E0,5.820838085E0
2.823353333E-1,5.669511752E0,1.668153031E0,4.582820172E0,7.478525173E0
2.922723333E-1,6.480342808E0,1.511656104E0,5.024746299E0,8.338346506E0
3.022083333E-1,6.799137683E0,1.424541947E0,5.437053355E0,8.821515866E0
3.121443333E-1,6.868415494E0,1.308831688E0,5.939668318E0,9.174302781E0
3.220803333E-1,6.751290502E0,6.839467683E-1,6.763834534E0,9.581083666E0
3.320163333E-1,7.335874658E0,5.529603669E-1,7.694127129E0,1.064520617E1
3.419533333E-1,8.658144709E0,1.823144299E-1,8.150940852E0,1.189262566E1
3.518893333E-1,9.503470244E0,-1.141815037E0,7.505612311E0,1.216363040E1
3.618253333E-1,1.091756673E1,-9.677175526E-1,7.431852610E0,1.324243836E1
3.717613333E-1,1.319007189E1,-4.329336941E-2,7.827219697E0,1.533770644E1
3.816983333E-1,1.442461792E1,-2.917729182E-1,8.221551243E0,1.660568090E1
3.916343333E-1,1.566705067E1,-6.806327127E-1,8.879853585E0,1.802141885E1
4.015703333E-1,1.627768008E1,-8.177116205E-1,9.493667972E0,1.886163441E1
4.115063333E-1,1.585857271E1,-1.637864892E0,9.839319109E0,1.873470390E1
4.214433333E-1,1.470073513E1,-2.778351295E0,9.532061960E0,1.773953366E1
4.313793333E-1,1.313089105E1,-3.713217290E0,8.732599061E0,1.620082000E1
4.413153333E-1,1.181113354E1,-4.710824201E0,7.670975078E0,1.485054204E1
4.512513333E-1,1.061530193E1,-5.953486458E0,6.259484117E0,1.368611623E1
4.611883333E-1,9.682268159E0,-7.087927571E0,5.138461779E0,1.305330699E1
4.711243333E-1,9.650394986E0,-7.711311511E0,4.555506950E0,1.316613429E1
4.810603333E-1,9.575627809E0,-8.063447210E0,4.082606952E0,1.316736528E1
4.909963333E-1,8.678445657E0,-8.423749130E0,3.770453053E0,1.266851549E1
5.009323333E-1,7.751797632E0,-8.887971275E0,3.336254021E0,1.225630412E1
5.108693333E-1,7.025262961E0,-9.730429920E0,2.413242379E0,1.224170433E1
5.208053333E-1,6.045067304E0,-1.075743722E1,1.533417394E0,1.243449489E1
5.307413333E-1,4.763052408E0,-1.162121832E1,1.046757729E0,1.260297922E1
5.406773333E-1,3.413959424E0,-1.235050527E1,8.457880497E-1,1.284155197E1
5.506143333E-1,2.135565709E0,-1.305401653E1,8.276352225E-1,1.325341347E1
5.605503333E-1,1.133759620E0,-1.380266830E1,9.172882412E-1,1.387949858E1
5.704863333E-1,2.789817685E-1,-1.440489175E1,1.025321398E0,1.444403064E1
5.804223333E-1,-6.660247600E-1,-1.452586596E1,1.135885887E0,1.458542449E1
5.903593333E-1,-1.430752567E0,-1.450441253E1,1.185313058E0,1.462292730E1
6.002953333E-1,-1.954065065E0,-1.454325324E1,1.177449065E0,1.472110633E1
6.102313333E-1,-2.596935290E0,-1.451185019E1,1.163091227E0,1.478819292E1
6.201673333E-1,-3.321383967E0,-1.428993315E1,1.081971708E0,1.471069147E1
6.301043333E-1,-4.232238370E0,-1.411265376E1,1.085816252E0,1.477355186E1
6.400403333E-1,-5.470743842E0,-1.413566138E1,1.065099567E0,1.519474903E1
6.499763333E-1,-6.858843017E0,-1.413360901E1,8.241381490E-1,1.573155539E1
6.599123333E-1,-8.057729217E0,-1.379704328E1,6.202708822E-1,1.598968853E1
6.698483333E-1,-8.875982729E0,-1.309835948E1,5.818166685E-1,1.583314880E1
6.797853333E-1,-9.384576470E0,-1.222071814E1,5.698164278E-1,1.541884944E1
6.897213333E-1,-9.956080989E0,-1.155329589E1,6.481457287E-1,1.526506756E1
6.996573333E-1,-1.079104818E1,-1.132179995E1,5.223299835E-1,1.564936751E1
7.095933333E-1,-1.129173824E1,-1.141910931E1,4.625726455E-1,1.606590749E1
7.195303333E-1,-1.173402397E1,-1.135890404E1,5.560783216E-1,1.634078464E1
7.294663333E-1,-1.229060874E1,-1.135525654E1,5.726903343E-1,1.674302507E1
7.394023333E-1,-1.306564781E1,-1.158785527E1,8.154200236E-1,1.748297608E1
7.493383333E-1,-1.354579310E1,-1.193078395E1,1.576192408E0,1.811950603E1
7.592753333E-1,-1.364966304E1,-1.234531996E1,2.217673481E0,1.853748369E1
7.692113333E-1,-1.339326263E1,-1.285289570E1,2.408938828E0,1.871842403E1
7.791473333E-1,-1.290630183E1,-1.325581096E1,2.026985838E0,1.861176571E1
7.890833333E-1,-1.205611668E1,-1.358916073E1,1.398907753E0,1.822010377E1
7.990203333E-1,-1.086986982E1,-1.398193223E1,8.204438782E-1,1.772911806E1
8.089563333E-1,-9.499305857E0,-1.439873112E1,3.085692279E-1,1.725269500E1
8.188923333E-1,-8.093379107E0,-1.472799953E1,-1.214028150E-1,1.680569826E1
8.288283333E-1,-6.639709840E0,-1.490159401E1,-5.104595876E-1,1.632188162E1
8.387653333E-1,-5.236268156E0,-1.505835552E1,-7.543199822E-1,1.596062573E1
8.487013333E-1,-3.988845972E0,-1.532196554E1,-8.079670894E-1,1.585327509E1
8.586373333E-1,-3.024246886E0,-1.560635423E1,-6.777578560E-1,1.591111930E1
8.685733333E-1,-2.098566867E0,-1.606359480E1,-3.886714411E-1,1.620475629E1
8.785103333E-1,-9.515092170E-1,-1.654788459E1,-5.373013772E-2,1.657530516E1
8.884463333E-1,4.229063040E-1,-1.696606459E1,3.066221416E-2,1.697136228E1
8.983823333E-1,2.240413302E0,-1.678561601E1,-4.631126359E-2,1.693453575E1
9.083183333E-1,4.624746462E0,-1.570806655E1,-6.172262371E-2,1.637484181E1
9.182543333E-1,6.881878123E0,-1.444001480E1,2.866503918E-1,1.599863877E1
9.281920000E-1,8.507255555E0,-1.316933532E1,1.012545670E0,1.571082552E1
9.381280000E-1,1.005679460E1,-1.255448539E1,1.932266207E0,1.620147752E1
9.480640000E-1,1.160972854E1,-1.241111517E1,3.134960114E0,1.728148001E1
9.580000000E-1,1.357096653E1,-1.178032223E1,4.207837062E0,1.845678783E1
9.679370000E-1,1.568022094E1,-1.068577374E1,5.399828226E0,1.972848788E1
9.778730000E-1,1.659959854E1,-8.621026000E0,7.330674144E0,2.008998617E1
9.878090000E-1,1.676889648E1,-6.762741104E0,9.118604756E0,2.025041997E1
9.977450000E-1,1.570362617E1,-5.270753279E0,1.068177074E1,1.971002134E1
1.007682000E0,1.386509317E1,-3.545077680E0,1.173975424E1,1.851027320E1
1.017618000E0,1.251457581E1,-2.346346577E0,1.153677868E1,1.718188616E1
1.027554000E0,1.187375138E1,-1.278354392E0,1.059484603E1,1.596467739E1
1.037490000E0,1.170558545E1,-3.107543689E-1,9.343293958E0,1.498046865E1
1.047427000E0,1.155446300E1,7.083780433E-1,7.996226449E0,1.406936573E1
1.057363000E0,1.137930965E1,2.594924140E0,7.211109694E0,1.371941771E1
1.067299000E0,1.197381127E1,3.777688105E0,6.273243785E0,1.403555027E1
1.077235000E0,1.277447986E1,3.833857335E0,5.333440694E0,1.436423989E1
1.087172000E0,1.341222515E1,4.040921567E0,5.122932744E0,1.491513562E1
1.097108000E0,1.472590623E1,3.903335706E0,5.287673367E0,1.612599868E1
1.107044000E0,1.595789585E1,3.988687513E0,5.787762333E0,1.743738114E1
1.116980000E0,1.709081260E1,4.269595354E0,6.473159503E0,1.876771466E1
1.126917000E0,1.796003629E1,4.117104940E0,6.822283886E0,1.964833362E1
1.136853000E0,1.810420524E1,4.069769391E0,7.010704563E0,1.983621054E1
1.146789000E0,1.792914662E1,3.667931482E0,6.911730498E0,1.956220944E1
1.156725000E0,1.783353295E1,2.591687998E0,6.671458467E0,1.921614171E1
1.166662000E0,1.735008516E1,1.595526811E0,6.848078878E0,1.872077309E1
1.176598000E0,1.661638823E1,6.527319923E-1,7.231295452E0,1.813345115E1
1.186534000E0,1.597925339E1,-3.314520505E-1,7.597819979E0,1.769670218E1
1.196470000E0,1.539220814E1,-1.037385519E0,7.873063622E0,1.731997030E1
1.206407000E0,1.510291481E1,-2.012565873E0,7.675375108E0,1.706047597E1
1.216343000E0,1.509779499E1,-3.204139692E0,7.262284525E0,1.705727708E1
1.226279000E0,1.553298103E1,-4.430238249E0,6.902631646E0,1.756550125E1
1.236215000E0,1.597310329E1,-5.844813032E0,6.344127241E0,1.815350706E1
1.246152000E0,1.577997678E1,-7.455482377E0,5.677239432E0,1.835273637E1
1.256088000E0,1.510983207E1,-9.112533007E0,5.036064169E0,1.834958379E1
1.266024000E0,1.423757718E1,-1.059427768E1,4.551483774E0,1.832111700E1
1.275960000E0,1.316242157E1,-1.163373604E1,4.237888827E0,1.807077357E1
1.285897000E0,1.222366981E1,-1.282416950E1,3.910058542E0,1.814293209E1
1.295833000E0,1.110576872E1,-1.390412918E1,3.847723423E0,1.820625944E1
1.305769000E0,9.989069810E0,-1.448558566E1,3.696462386E0,1.797992052E1
1.315705000E0,9.326364514E0,-1.462465935E1,3.096265287E0,1.761955149E1
1.325642000E0,8.567260267E0,-1.453067120E1,2.112374190E0,1.700001408E1
1.335578000E0,7.729346078E0,-1.472730722E1,1.055981127E0,1.666587726E1
1.345514000E0,6.718768288E0,-1.556327429E1,1.458017841E-1,1.695224504E1
1.355450000E0,5.385902497E0,-1.679936164E1,-4.001854858E-1,1.764615102E1
1.365387000E0,3.912715809E0,-1.802522806E1,-7.962776282E-1,1.846218432E1
1.375323000E0,2.298229401E0,-1.915252446E1,-1.065460925E0,1.931932345E1
1.385259000E0,3.317201453E-1,-2.011515158E1,-1.254296755E0,2.015694971E1
1.395195000E0,-1.920975672E0,-2.049423358E1,-1.514549891E0,2.063970976E1
1.405131000E0,-4.019108237E0,-2.014004668E1,-1.960128189E0,2.063048264E1
1.415068000E0,-5.662312660E0,-1.930239562E1,-2.412605763E0,2.025993405E1
1.425004000E0,-6.570062485E0,-1.824858936E1,-2.450919059E0,1.954952017E1
1.434940000E0,-6.756255957E0,-1.711917510E1,-2.055263704E0,1.851856527E1
1.444877000E0,-6.458828562E0,-1.600072086E1,-1.293190094E0,1.730352204E1
1.454813000E0,-6.048949855E0,-1.520280046E1,-5.989191896E-1,1.637295454E1
1.464749000E0,-5.951796028E0,-1.450855703E1,-1.498699844E-2,1.568191085E1
1.474685000E0,-6.141722948E0,-1.385644397E1,5.370257541E-1,1.516608707E1
1.484621000E0,-6.672841918E0,-1.322507683E1,1.030906219E0,1.484898124E1
1.494558000E0,-7.157124690E0,-1.258191117E1,1.455997043E0,1.454815624E1
1.504494000E0,-7.644011228E0,-1.193329942E1,1.594736853E0,1.426105635E1
1.514430000E0,-8.156522019E0,-1.143137326E1,1.299896266E0,1.410300948E1
1.524366000E0,-8.575314222E0,-1.106731743E1,8.889567272E-1,1.402896194E1
1.534303000E0,-8.604356757E0,-1.078167743E1,3.506879282E-1,1.379864144E1
1.544239000E0,-8.251506529E0,-1.046280187E1,-3.414885038E-1,1.332944850E1
1.554175000E0,-7.730151824E0,-9.987009251E0,-1.267548884E0,1.269260734E1
1.564111000E0,-7.430660362E0,-9.580675710E0,-2.191266870E0,1.232094603E1
1.574048000E0,-7.431682456E0,-9.803319556E0,-2.395777915E0,1.253294579E1
1.583984000E0,-7.561673076E0,-1.048496281E1,-1.775911660E0,1.304864771E1
1.593920000E0,-7.671938699E0,-1.119896047E1,-8.024988464E-1,1.359850593E1
1.603856000E0,-8.192305809E0,-1.187024071E1,2.020305832E-1,1.442419167E1
1.613793000E0,-8.744326236E0,-1.276589381E1,1.139649155E0,1.551547893E1
1.623729000E0,-9.632626467E0,-1.366545052E1,1.607483783E0,1.679631015E1
1.633665000E0,-1.073875185E1,-1.475873016E1,1.092335898E0,1.828480530E1
1.643601000E0,-1.102482103E1,-1.551579022E1,3.708562906E-1,1.903743573E1
1.653538000E0,-1.038144020E1,-1.589895358E1,-3.957328311E-1,1.899230450E1
1.663474000E0,-8.983306618E0,-1.628596675E1,-1.556070531E0,1.866424031E1
1.673410000E0,-7.741949167E0,-1.645775093E1,-2.561787384E0,1.836731056E1
1.683346000E0,-6.687786232E0,-1.640835131E1,-3.098336079E0,1.798777818E1
1.693283000E0,-5.436128325E0,-1.673095156E1,-3.287101741E0,1.789640380E1
1.703219000E0,-4.289562719E0,-1.735758830E1,-3.563967403E0,1.823151348E1
1.713155000E0,-2.730338638E0,-1.750637655E1,-3.650223774E0,1.809011063E1
1.723091000E0,-5.774797887E-1,-1.739859950E1,-3.820846111E0,1.782255909E1
1.733028000E0,1.477614200E0,-1.724463179E1,-4.431682803E0,1.786618263E1
1.742964000E0,3.102391707E0,-1.711690053E1,-4.883892136E0,1.806835689E1
1.752900000E0,4.732687817E0,-1.720219036E1,-4.886552035E0,1.849843447E1
1.762836000E0,6.328057923E0,-1.682782823E1,-3.995830472E0,1.841702422E1
1.772773000E0,7.614515533E0,-1.595662818E1,-1.517182893E0,1.774532822E1
1.782709000E0,9.989221838E0,-1.578609998E1,1.601849406E0,1.874970472E1
1.792645000E0,1.230721015E1,-1.522905679E1,4.144460846E0,2.001419867E1
1.802581000E0,1.467589499E1,-1.402784691E1,6.053968520E0,2.118520516E1
1.812518000E0,1.788869324E1,-1.236986073E1,6.311054220E0,2.264615211E1
1.822454000E0,1.990277837E1,-9.813189071E0,5.627639256E0,2.289300308E1
1.832390000E0,2.184742664E1,-8.258091663E0,5.602138964E0,2.401853637E1
1.842327000E0,2.471576658E1,-7.164411491E0,8.111965651E0,2.698151027E1
1.852263000E0,2.600177980E1,-4.684026119E0,1.330194900E1,2.957996790E1
1.862199000E0,2.561758733E1,-2.304898151E0,1.762598252E1,3.118090114E1
1.872135000E0,2.308123358E1,-1.192691368E0,1.926050383E1,3.008542610E1
1.882072000E0,1.852473816E1,-4.363996312E-1,1.857578084E1,2.623768287E1
1.892008000E0,1.430422608E1,-4.741030625E-1,1.580016487E1,2.131855688E1
1.901944000E0,1.132020015E1,-3.233337763E-1,1.220620535E1,1.665061335E1
1.911880000E0,1.009675447E1,3.158762375E-1,9.251237733E0,1.369779647E1
1.921817000E0,1.043733607E1,7.863917407E-1,7.126296415E0,1.266256281E1
1.931753250E0,1.088122628E1,1.482820560E0,6.041495240E0,1.253393421E1
1.941689250E0,1.133014275E1,2.346657503E0,6.118955644E0,1.308894780E1
1.951625250E0,1.212668789E1,2.908214739E0,6.563843386E0,1.409249134E1
1.961562250E0,1.271459034E1,3.308207266E0,6.898560230E0,1.483897490E1
1.971498250E0,1.348125972E1,3.646889984E0,7.243286337E0,1.573243042E1
1.981434250E0,1.403091436E1,3.674291206E0,7.502502177E0,1.632955947E1
1.991370250E0,1.394116077E1,3.614034771E0,7.626778314E0,1.629677755E1
2.001307250E0,1.359440919E1,3.170407982E0,7.708509525E0,1.594617719E1
2.011243250E0,1.313380647E1,2.394432178E0,7.449794791E0,1.528821835E1
2.021179250E0,1.265349863E1,1.683556643E0,6.996893440E0,1.455685091E1
2.031115250E0,1.221113572E1,1.186967674E0,6.502130703E0,1.388518748E1
2.041052250E0,1.210724005E1,5.891392829E-1,5.860481231E0,1.346393654E1
2.050988250E0,1.244964248E1,-1.919819239E-1,5.110052497E0,1.345894095E1
2.060924250E0,1.278289518E1,-9.788192225E-1,4.959096100E0,1.374602234E1
2.070860250E0,1.296177788E1,-1.906766207E0,5.357268097E0,1.415428432E1
2.080797250E0,1.293709093E1,-3.348397518E0,5.661090592E0,1.451302981E1
2.090733250E0,1.227679410E1,-4.890637777E0,5.887288960E0,1.446714148E1
2.100669250E0,1.175580134E1,-6.455032550E0,5.973393304E0,1.468154413E1
2.110605250E0,1.148227795E1,-7.814272208E0,5.871636549E0,1.507918011E1
2.120542250E0,1.093878978E1,-8.499768780E0,5.846603449E0,1.503615519E1
2.130478250E0,9.990145698E0,-8.787849401E0,5.834947609E0,1.452845215E1
2.140414250E0,9.303137035E0,-9.544766790E0,5.440865155E0,1.439631708E1
2.150350250E0,9.127348098E0,-1.092301750E1,4.443237194E0,1.491184601E1
2.160287250E0,8.675945973E0,-1.196158825E1,3.497069701E0,1.518489804E1
2.170223250E0,8.071000058E0,-1.255588521E1,2.941987964E0,1.521336875E1
2.180159250E0,7.553691042E0,-1.307524426E1,2.519733040E0,1.530912524E1
2.190095250E0,6.616584687E0,-1.337171330E1,2.111498862E0,1.506785774E1
2.200032250E0,5.353587275E0,-1.359738425E1,1.648549071E0,1.470603513E1
2.209968250E0,4.130149786E0,-1.403339943E1,1.113760388E0,1.467088610E1
2.219904250E0,2.946142995E0,-1.469389857E1,5.331023455E-1,1.499581981E1
2.229840250E0,1.513977157E0,-1.507907104E1,-6.909333140E-2,1.515504154E1
2.239777250E0,3.195108667E-1,-1.551044352E1,-6.037472355E-1,1.552547765E1
2.249713250E0,-9.142837957E-1,-1.588759478E1,-1.006611623E0,1.594568436E1
2.259649250E0,-2.027537230E0,-1.584497209E1,-1.399653273E0,1.603536956E1
2.269585250E0,-3.208036276E0,-1.550021090E1,-1.987783765E0,1.595303479E1
2.279522250E0,-4.498701543E0,-1.515947259E1,-2.679465523E0,1.603831226E1
2.289458250E0,-5.451801202E0,-1.469573459E1,-3.388574322E0,1.603649549E1
2.299394250E0,-5.995980513E0,-1.415278554E1,-3.960629064E0,1.587260859E1
2.309330250E0,-6.259004645E0,-1.335440554E1,-3.887785036E0,1.525221817E1
2.319267250E0,-6.236330897E0,-1.254161099E1,-3.394847800E0,1.441210675E1
2.329203250E0,-6.154542968E0,-1.188342969E1,-2.761330635E0,1.366452513E1
2.339139250E0,-6.530349365E0,-1.128862752E1,-2.098202586E0,1.320912670E1
2.349075250E0,-7.395115138E0,-1.094088659E1,-1.662902523E0,1.330999520E1
2.359012250E0,-8.506034657E0,-1.094506618E1,-1.517390469E0,1.394451767E1
2.368948250E0,-9.601422801E0,-1.110343334E1,-1.531515588E0,1.475869546E1
2.378884250E0,-1.033607048E1,-1.114845105E1,-1.515939190E0,1.527810150E1
2.388821250E0,-1.091573889E1,-1.094458203E1,-1.547903579E0,1.553490382E1
2.398757250E0,-1.116904495E1,-1.060676733E1,-1.661834822E0,1.549234563E1
2.408693250E0,-1.109463679E1,-1.025507134E1,-1.931443503E0,1.523114991E1
2.418629250E0,-1.101934687E1,-9.996070096E0,-2.492298489E0,1.508505799E1
2.428566250E0,-1.084536414E1,-9.960642986E0,-2.890322551E0,1.500634187E1
2.438502250E0,-1.052286797E1,-9.997681589E0,-2.481299876E0,1.472553010E1
2.448438250E0,-1.005196129E1,-1.013346446E1,-1.802201326E0,1.438669376E1
2.458374250E0,-9.585706655E0,-1.034335728E1,-1.257056640E0,1.415807202E1
2.468311250E0,-9.357322598E0,-1.044920241E1,-8.945549977E-1,1.405508968E1
2.478247250E0,-9.170460788E0,-1.059740009E1,-8.601354358E-1,1.404072907E1
2.488183250E0,-9.012752611E0,-1.078757961E1,-1.118115760E0,1.410148100E1
2.498119250E0,-8.659628733E0,-1.110206626E1,-1.608521664E0,1.417153439E1
2.508056250E0,-8.121270910E0,-1.147534198E1,-2.055778112E0,1.420791112E1
2.517992250E0,-7.534062524E0,-1.202486448E1,-2.293290843E0,1.437423552E1
2.527928250E0,-7.016499154E0,-1.265805478E1,-2.316246573E0,1.465682808E1
2.537864250E0,-6.497997891E0,-1.333780530E1,-2.177642273E0,1.499543773E1
2.547801250E0,-6.107158302E0,-1.389097295E1,-1.807127021E0,1.528143383E1
2.557737250E0,-5.576390165E0,-1.415875554E1,-1.361970307E0,1.527813631E1
2.567673250E0,-4.784930935E0,-1.427365684E1,-1.098885949E0,1.509438286E1
2.577609250E0,-3.710849752E0,-1.443724907E1,-1.299017576E0,1.496302153E1
2.587546250E0,-2.373063821E0,-1.463117198E1,-1.785360907E0,1.492950565E1
2.597482250E0,-1.132915574E0,-1.469090129E1,-2.240382312E0,1.490387168E1
2.607418250E0,4.449169779E-1,-1.487719241E1,-2.236134310E0,1.505088375E1
2.617354250E0,2.393841317E0,-1.484428194E1,-1.406417625E0,1.510169504E1
2.627291250E0,4.561843870E0,-1.439159986E1,2.064584604E-1,1.509871488E1
2.637227250E0,6.592088361E0,-1.344411236E1,1.993077834E0,1.510536809E1
2.647163250E0,7.950205353E0,-1.228337690E1,3.325164776E0,1.500479370E1
2.657100250E0,8.965143996E0,-1.154095008E1,3.524915019E0,1.503304232E1
2.667036250E0,1.090513087E1,-1.071111674E1,3.438507205E0,1.566758542E1
2.676972250E0,1.406545620E1,-8.877943300E0,4.995193301E0,1.736683309E1
2.686908250E0,1.704917224E1,-6.048586158E0,7.405820221E0,1.954752776E1
2.696845250E0,1.834308972E1,-3.756233501E0,8.998422840E0,2.077377781E1
2.706781250E0,1.712024397E1,-2.331994440E0,8.895177968E0,1.943360859E1
2.716717250E0,1.437473064E1,-1.319231254E0,6.801195903E0,1.595711496E1
2.726653250E0,1.215173853E1,-1.130096047E0,3.975688568E0,1.283541842E1
2.736590250E0,1.071406257E1,-1.021821693E0,2.557048801E0,1.106226717E1
2.746526250E0,1.047881154E1,-3.662222260E-1,3.080503533E0,1.092836274E1
2.756462250E0,1.121624367E1,7.730135306E-1,4.013886089E0,1.193787894E1
2.766398250E0,1.234576435E1,1.677595845E0,4.716969917E0,1.332223819E1
2.776335250E0,1.369956084E1,2.853820430E0,5.801593922E0,1.514862205E1
2.786271250E0,1.485873392E1,4.298885227E0,6.859569826E0,1.692087722E1
2.796207250E0,1.532574167E1,5.261945618E0,7.121953688E0,1.769996197E1
2.806143250E0,1.536717855E1,6.041535001E0,6.761051844E0,1.784270562E1
2.816080250E0,1.507699878E1,6.294466254E0,6.452631683E0,1.756623617E1
2.826016250E0,1.442975879E1,6.478958187E0,6.668010948E0,1.716558207E1
2.835952250E0,1.413034158E1,6.588102314E0,6.857886997E0,1.703232983E1
2.845888250E0,1.431246598E1,6.196200871E0,6.424197843E0,1.686742143E1
2.855825250E0,1.429457116E1,5.893182954E0,5.698303442E0,1.647832006E1
2.865761250E0,1.440488707E1,5.690129035E0,5.033758028E0,1.628548617E1
2.875697250E0,1.468282043E1,5.428691837E0,4.447908242E0,1.627389931E1
2.885634250E0,1.491326739E1,5.096446027E0,3.871547318E0,1.622862240E1
2.895570250E0,1.491903625E1,4.665820813E0,3.461807190E0,1.601036026E1
2.905506250E0,1.472927773E1,3.961308510E0,3.384763691E0,1.562370676E1
2.915442250E0,1.437639476E1,3.186162427E0,3.540732029E0,1.514493779E1
2.925378458E0,1.379936579E1,2.299121686E0,3.578024401E0,1.443990012E1
2.935314458E0,1.312984556E1,1.138143277E0,3.376570573E0,1.360475812E1
2.945250458E0,1.255182491E1,-1.917290318E-1,3.068877221E0,1.292296699E1
2.955186458E0,1.211861639E1,-1.730358050E0,2.703527692E0,1.253650925E1
2.965123458E0,1.177003113E1,-3.076589406E0,2.735839114E0,1.246931637E1
2.975059458E0,1.140350660E1,-4.061952248E0,3.412219000E0,1.257706871E1
2.984995458E0,1.111762921E1,-4.938045539E0,4.397442386E0,1.293535746E1
2.994931458E0,1.114856098E1,-6.084505019E0,5.105090550E0,1.368844632E1
3.004868458E0,1.144036862E1,-7.207314851E0,5.529061047E0,1.460814627E1
3.014804458E0,1.163600125E1,-8.156199253E0,5.749209301E0,1.532884597E1
3.024740458E0,1.164403766E1,-9.377316567E0,5.550454255E0,1.594757729E1
3.034677458E0,1.091619497E1,-1.051766980E1,4.987956203E0,1.595820785E1
3.044613458E0,9.699216898E0,-1.131282330E1,4.096596124E0,1.545434823E1
3.054549458E0,8.357853348E0,-1.224413039E1,2.988920640E0,1.512303171E1
3.064485458E0,7.057247230E0,-1.319994900E1,1.679586091E0,1.506201851E1
3.074422458E0,5.984379053E0,-1.434378133E1,1.628505108E-1,1.554295261E1
3.084358458E0,4.706160754E0,-1.500520667E1,-8.493364325E-1,1.574882690E1
3.094294458E0,3.398845541E0,-1.501678883E1,-1.214886813E0,1.544448276E1
3.104230458E0,2.306436553E0,-1.501528961E1,-1.337811951E0,1.525019057E1
3.114167458E0,1.230322586E0,-1.493187908E1,-1.366207200E0,1.504464119E1
3.124103458E0,2.308700010E-1,-1.478585539E1,-1.442711000E0,1.485786780E1
3.134039458E0,-7.100636494E-1,-1.473643823E1,-1.525926819E0,1.483223701E1
3.143975458E0,-1.542683769E0,-1.470973751E1,-1.636759330E0,1.488069998E1
3.153912458E0,-2.414755638E0,-1.465828435E1,-1.793331977E0,1.496370223E1
3.163848458E0,-3.423648845E0,-1.454610318E1,-1.953180528E0,1.507068025E1
3.173784458E0,-4.369629520E0,-1.435934896E1,-2.237008761E0,1.517526846E1
3.183720458E0,-5.104942031E0,-1.411940963E1,-2.631881467E0,1.524286592E1
3.193657458E0,-5.778085191E0,-1.373366414E1,-2.971168494E0,1.519301291E1
3.203593458E0,-6.273697529E0,-1.312884218E1,-3.161829824E0,1.489036419E1
3.213529458E0,-6.504982975E0,-1.257970209E1,-3.047441913E0,1.448622140E1
3.223466458E0,-6.523800484E0,-1.207386648E1,-2.641586090E0,1.397555729E1
3.233402458E0,-6.448533955E0,-1.148824679E1,-2.078462824E0,1.333729403E1
3.243338458E0,-6.408457139E0,-1.070858607E1,-1.303722830E0,1.254758270E1
3.253274458E0,-6.345807146E0,-9.878765595E0,-5.141528352E-1,1.175260104E1
3.263211458E0,-6.445218583E0,-9.169726962E0,1.400219576E-1,1.120911867E1
3.273147458E0,-6.908927343E0,-8.567878318E0,6.562558168E-1,1.102599146E1
3.283083458E0,-7.575877132E0,-8.064952868E0,7.579388239E-1,1.109107075E1
3.293019458E0,-8.301700197E0,-7.963574427E0,4.928722592E-1,1.151432442E1
3.302956458E0,-9.346392397E0,-8.221288703E0,-1.197100461E-2,1.244768180E1
3.312892458E0,-1.036748407E1,-8.664604713E0,-6.841984910E-1,1.352879256E1
3.322828458E0,-1.116814564E1,-9.121833004E0,-1.234778164E0,1.447273269E1
3.332765458E0,-1.195446400E1,-9.369270798E0,-1.756127606E0,1.528974915E1
3.342701458E0,-1.235716057E1,-9.604196135E0,-2.176483939E0,1.580117348E1
3.352637458E0,-1.222875455E1,-9.841822886E0,-2.332498763E0,1.586960825E1
3.362573458E0,-1.149985936E1,-1.019344286E1,-2.186419528E0,1.552203186E1
3.372510458E0,-1.064599396E1,-1.053552486E1,-1.791994427E0,1.508461851E1
3.382446458E0,-9.651345159E0,-1.091490507E1,-1.509839374E0,1.464797703E1
3.392382458E0,-8.521609300E0,-1.135772875E1,-1.349732085E0,1.426315547E1
3.402318458E0,-7.387990891E0,-1.177440484E1,-1.280899832E0,1.395921642E1
3.412255458E0,-6.354604282E0,-1.220402784E1,-1.177515870E0,1.380962834E1
3.422191458E0,-5.416564127E0,-1.263133301E1,-1.051432943E0,1.378387651E1
3.432127458E0,-4.706836984E0,-1.308277314E1,-9.722288257E-1,1.393766466E1
3.442063458E0,-4.249982331E0,-1.347413898E1,-9.932061504E-1,1.416337634E1
3.452000458E0,-4.013062801E0,-1.376582616E1,-1.208565096E0,1.438969327E1
3.461936458E0,-3.906130090E0,-1.401794641E1,-1.449840510E0,1.462404565E1
3.471872458E0,-3.922425111E0,-1.426677818E1,-1.526918653E0,1.487473895E1
3.481809458E0,-3.674878559E0,-1.465026781E1,-1.466192833E0,1.517513759E1
3.491745458E0,-2.746625472E0,-1.476693731E1,-1.304808804E0,1.507676739E1
3.501681458E0,-1.237021156E0,-1.485534838E1,-1.377226862E0,1.497024885E1
3.511617458E0,4.673533291E-1,-1.517242651E1,-1.613485365E0,1.526513283E1
3.521554458E0,2.336309978E0,-1.495461305E1,-1.734188268E0,1.523503215E1
3.531490458E0,3.966956921E0,-1.421102614E1,-1.575063019E0,1.483815470E1
3.541426458E0,5.653639485E0,-1.347062597E1,-1.240476860E0,1.466152060E1
3.551362458E0,8.220207553E0,-1.274714881E1,-3.330240744E-1,1.517143764E1
3.561299458E0,1.156017806E1,-1.131702160E1,2.647276601E0,1.639270472E1
3.571235458E0,1.522272075E1,-9.127332895E0,5.980255011E0,1.872973259E1
3.581171458E0,1.820448966E1,-7.405603289E0,8.350809792E0,2.135374506E1
3.591108458E0,1.944158508E1,-5.917555318E0,9.724424829E0,2.252902860E1
3.601044458E0,1.828801246E1,-4.061991424E0,9.392421679E0,2.095635367E1
3.610980458E0,1.623516146E1,-3.133621978E0,7.318040650E0,1.808186311E1
3.620916458E0,1.405709001E1,-3.445285297E0,4.405623225E0,1.512882303E1
3.630853458E0,1.216422234E1,-4.872678638E0,2.161145523E0,1.328088296E1
3.640789458E0,1.117577626E1,-4.737754722E0,1.887270713E0,1.228438381E1
3.650725458E0,1.092154868E1,-2.731909200E0,2.473318719E0,1.152652848E1
3.660661458E0,1.084744808E1,-6.123024429E-1,3.589961200E0,1.144245890E1
3.670598458E0,1.154407249E1,1.381791930E0,4.745572742E0,1.255768368E1
3.680534458E0,1.278673095E1,2.435801960E0,5.272501012E0,1.404396264E1
3.690470458E0,1.364282530E1,2.805047343E0,5.274273888E0,1.489338571E1
3.700407458E0,1.430170009E1,3.323461483E0,5.302731117E0,1.561098904E1
3.710343458E0,1.508129999E1,4.598628704E0,6.181966410E0,1.693545701E1
3.720279458E0,1.562065535E1,5.877379099E0,7.695711139E0,1.837858614E1
3.730215458E0,1.552494930E1,6.583737953E0,8.449034829E0,1.886149108E1
3.740152458E0,1.493152240E1,6.745098885E0,8.150090082E0,1.829947235E1
3.750088458E0,1.449130658E1,6.502465163E0,6.933539443E0,1.733072384E1
3.760024458E0,1.427424039E1,6.066869817E0,5.351222076E0,1.640720652E1
3.769960458E0,1.427770311E1,6.096102387E0,4.060870221E0,1.604699154E1
3.779897458E0,1.456073291E1,6.580014446E0,3.343143210E0,1.632446445E1
3.789833458E0,1.490756284E1,6.782185435E0,3.033981623E0,1.665648564E1
3.799769458E0,1.511207740E1,6.438792493E0,3.056202797E0,1.670848011E1
3.809705458E0,1.507327995E1,5.518216217E0,3.104110789E0,1.634900555E1
3.819642458E0,1.478226052E1,4.105225444E0,3.143298243E0,1.566040951E1
3.829578458E0,1.423911383E1,2.806536921E0,3.161977758E0,1.485352199E1
3.839514458E0,1.360566975E1,1.343593093E0,2.900432095E0,1.397612243E1
3.849451458E0,1.291558487E1,-1.657266831E-1,2.617758102E0,1.317924335E1
3.859387458E0,1.215995738E1,-1.661965215E0,2.559856049E0,1.253712706E1
3.869323458E0,1.139379554E1,-3.014384972E0,2.848619624E0,1.212516917E1
3.879259458E0,1.085846190E1,-4.152781726E0,3.210606712E0,1.206067106E1
3.889196458E0,1.083788438E1,-5.659659194E0,3.660947860E0,1.276299413E1
3.899132458E0,1.080114281E1,-6.865951477E0,4.176443654E0,1.346286215E1
3.909068458E0,1.068764719E1,-7.550144121E0,4.385252695E0,1.380075795E1
3.919005458E0,1.068126554E1,-8.654514173E0,4.095866976E0,1.434455211E1
3.928941833E0,1.020345212E1,-9.794213687E0,3.844634339E0,1.465668005E1
3.938877833E0,9.122563321E0,-1.048930262E1,3.786667382E0,1.440782707E1
3.948813833E0,8.049414477E0,-1.135472211E1,3.617969363E0,1.438097667E1
3.958750833E0,7.064566190E0,-1.258700644E1,3.120171921E0,1.476740665E1
3.968686833E0,6.039610097E0,-1.345752353E1,2.520983174E0,1.496453093E1
3.978622833E0,5.063962405E0,-1.363804111E1,1.919748195E0,1.467396721E1
3.988558833E0,4.152613619E0,-1.384930920E1,1.253649760E0,1.451272555E1
3.998495833E0,3.381110936E0,-1.454994129E1,6.654736599E-1,1.495244321E1
4.008431833E0,2.316229470E0,-1.461619141E1,4.303296366E-1,1.480483549E1
4.018367833E0,1.487240471E0,-1.415061856E1,3.536030576E-1,1.423295208E1
4.028304833E0,6.272302383E-1,-1.386531303E1,2.594114301E-1,1.388191692E1
4.038240833E0,-2.224959111E-1,-1.383353224E1,-2.063248515E-2,1.383533680E1
4.048176833E0,-6.896916577E-1,-1.428199497E1,-5.949191093E-1,1.431100918E1
4.058112833E0,-1.179703825E0,-1.460344682E1,-1.331367735E0,1.471138675E1
4.068049833E0,-1.712255362E0,-1.434461631E1,-1.924438832E0,1.457406259E1
4.077985833E0,-2.262675699E0,-1.365390344E1,-2.296652992E0,1.402937616E1
4.087921833E0,-2.922998546E0,-1.284828342E1,-2.528221443E0,1.341693747E1
4.097857833E0,-3.911531748E0,-1.218921568E1,-2.832875996E0,1.311114968E1
4.107794833E0,-4.796556661E0,-1.174819061E1,-3.208151466E0,1.308889507E1
4.117730833E0,-5.442722815E0,-1.134214124E1,-3.732882353E0,1.312256874E1
4.127666833E0,-5.902854248E0,-1.061386117E1,-4.170953411E0,1.284112883E1
4.137603833E0,-6.390696806E0,-9.638622202E0,-4.240836409E0,1.231782193E1
4.147539833E0,-6.930581921E0,-8.857338297E0,-3.858716773E0,1.189012627E1
4.157475833E0,-7.606552210E0,-8.340294160E0,-3.317151167E0,1.176535741E1
4.167411833E0,-8.468180367E0,-8.055611941E0,-2.949809784E0,1.205422500E1
4.177348833E0,-9.504187698E0,-8.058878195E0,-2.803932863E0,1.277251506E1
4.187284833E0,-1.033476422E1,-8.260527613E0,-2.757740445E0,1.351476231E1
4.197220833E0,-1.106077088E1,-8.289964251E0,-2.901828702E0,1.412390773E1
4.207156833E0,-1.144035341E1,-8.065913565E0,-3.326745279E0,1.438776849E1
4.217093833E0,-1.137481899E1,-7.761969448E0,-3.678986812E0,1.425375813E1
4.227029833E0,-1.118390974E1,-7.577734793E0,-3.758655710E0,1.402246035E1
4.236965833E0,-1.095685417E1,-7.578629417E0,-3.817728961E0,1.385869155E1
4.246902833E0,-1.065928702E1,-7.719428616E0,-3.819877812E0,1.370406671E1
4.256838833E0,-1.046512321E1,-8.123551909E0,-3.642523575E0,1.373968258E1
4.266774833E0,-1.031944568E1,-8.589408351E0,-3.455577566E0,1.386397891E1
4.276710833E0,-1.014653416E1,-9.025048721E0,-3.212870169E0,1.395443279E1
4.286647833E0,-9.964368832E0,-9.415429888E0,-2.846718110E0,1.400152742E1
4.296583833E0,-9.745388267E0,-9.847319269E0,-2.505919577E0,1.407913073E1
4.306519833E0,-9.405242869E0,-1.036849563E1,-2.198648395E0,1.417033344E1
4.316456833E0,-8.939129149E0,-1.091200836E1,-2.128703417E0,1.426573989E1
4.326392833E0,-8.391385961E0,-1.134216229E1,-2.381995005E0,1.430852557E1
4.336328833E0,-7.842506658E0,-1.181733744E1,-2.637394221E0,1.442602589E1
4.346264833E0,-7.226358647E0,-1.227928502E1,-2.674135786E0,1.449662382E1
4.356201833E0,-6.558903658E0,-1.267434513E1,-2.424427225E0,1.447536144E1
4.366137833E0,-5.964162304E0,-1.311147361E1,-1.979557902E0,1.453962248E1
4.376073833E0,-5.185789728E0,-1.343964859E1,-1.607997461E0,1.449490342E1
4.386010833E0,-3.969695464E0,-1.353043948E1,-1.355475805E0,1.416575410E1
4.395946833E0,-2.475504116E0,-1.340079150E1,-1.282857772E0,1.368777037E1
4.405882833E0,-8.137973481E-1,-1.308685917E1,-1.490404399E0,1.319656980E1
4.415818833E0,9.710085118E-1,-1.287529639E1,-2.145893646E0,1.308896383E1
4.425755833E0,2.724791969E0,-1.286836861E1,-2.504968820E0,1.339008105E1
4.435691833E0,4.773697264E0,-1.264322391E1,-1.733384276E0,1.362512082E1
4.445627833E0,6.648195904E0,-1.242926961E1,1.615731865E-1,1.409650161E1
4.455563833E0,8.170198656E0,-1.139289507E1,2.642028725E0,1.426641230E1
4.465500833E0,9.651897136E0,-1.011869790E1,5.287839428E0,1.495019770E1
4.475436833E0,1.042062590E1,-9.573807571E0,6.891259981E0,1.573965373E1
4.485372833E0,9.902888868E0,-8.803524617E0,7.014068466E0,1.499221165E1
4.495309833E0,8.943288274E0,-7.892099817E0,6.039546947E0,1.336950904E1
4.505245833E0,8.020177814E0,-7.214330925E0,5.432048138E0,1.207795388E1
4.515181833E0,7.704160366E0,-6.326115478E0,5.523523149E0,1.139662810E1
4.525117833E0,8.798623481E0,-5.229712842E0,5.104936768E0,1.143792162E1
4.535054833E0,1.044608117E1,-3.655289509E0,4.072465249E0,1.179265561E1
4.544990833E0,1.193237556E1,-2.015905949E0,3.319574254E0,1.254850734E1
4.554926833E0,1.249158105E1,-1.049060874E0,3.148448471E0,1.292489279E1
4.564863833E0,1.211951453E1,-1.077803447E0,3.440192372E0,1.264433534E1
4.574799833E0,1.095091573E1,-7.988553733E-1,4.454290186E0,1.184911078E1
4.584735833E0,1.014067408E1,-2.616924289E-1,6.186449470E0,1.188166279E1
4.594671833E0,1.021282170E1,4.448433030E-1,7.793963073E0,1.285478405E1
4.604608833E0,1.114889076E1,1.502615139E0,8.872983107E0,1.432778583E1
4.614544833E0,1.236108639E1,2.703067224E0,9.224082094E0,1.565843925E1
4.624480833E0,1.352498870E1,3.950842287E0,8.517862405E0,1.646476402E1
4.634417833E0,1.448828474E1,4.572284659E0,6.451347050E0,1.650563723E1
4.644353833E0,1.491960577E1,4.688190214E0,4.254510415E0,1.620723982E1
4.654289833E0,1.492569857E1,4.701053796E0,3.500924478E0,1.603536269E1
4.664225833E0,1.498830354E1,4.542386091E0,4.257170606E0,1.622978792E1
4.674162833E0,1.523431929E1,4.615111420E0,5.656917434E0,1.689332568E1
4.684098833E0,1.605265349E1,4.785052849E0,6.906489639E0,1.811860961E1
4.694034833E0,1.695162314E1,4.564978563E0,7.773673820E0,1.919965002E1
4.703971833E0,1.726825337E1,4.199248087E0,7.840950714E0,1.942438589E1
4.713907833E0,1.686575561E1,3.315946056E0,6.926706387E0,1.853182322E1
4.723843833E0,1.591014047E1,1.964173293E0,5.568912161E0,1.697066084E1
4.733779833E0,1.451641686E1,8.746237399E-1,4.503623144E0,1.522412384E1
4.743716833E0,1.299876853E1,-9.823410004E-2,3.955246702E0,1.358755349E1
4.753652833E0,1.170552230E1,-1.068374739E0,3.686846347E0,1.231882758E1
4.763588833E0,1.077808724E1,-2.096214532E0,3.711898743E0,1.159049060E1
4.773525833E0,1.035039148E1,-3.283339935E0,3.863666441E0,1.152557345E1
4.783461833E0,1.034580025E1,-4.319139690E0,4.276369354E0,1.199907852E1
4.793397833E0,1.060267194E1,-5.209321847E0,4.785132079E0,1.274563358E1
4.803333833E0,1.091635869E1,-5.953059027E0,5.289012964E0,1.351219660E1
4.813270833E0,1.086334783E1,-6.903937329E0,5.559851900E0,1.402100674E1
4.823206833E0,1.032835099E1,-7.881333339E0,5.437215908E0,1.408380510E1
4.833142833E0,9.434122267E0,-8.786592835E0,4.701534145E0,1.372265644E1
4.843078833E0,8.310068733E0,-9.687525390E0,3.671510855E0,1.328101587E1
4.853015833E0,7.217441643E0,-1.075287054E1,2.773882853E0,1.324424837E1
4.862951833E0,6.380891025E0,-1.149352799E1,2.191489649E0,1.332739970E1
4.872887833E0,6.234863831E0,-1.185064786E1,1.966912714E0,1.353440532E1
4.882824833E0,6.491802181E0,-1.195474701E1,2.312409191E0,1.379879371E1
4.892760833E0,6.992395177E0,-1.229978302E1,2.304441483E0,1.433487716E1
4.902696833E0,6.870499442E0,-1.267973743E1,1.940241517E0,1.455142745E1
4.912633833E0,5.836205930E0,-1.281421988E1,1.560856331E0,1.416692639E1
4.922569833E0,4.211485725E0,-1.321259068E1,1.268213128E0,1.392542743E1
4.932505708E0,2.382666119E0,-1.383678563E1,7.042772448E-1,1.405808454E1
4.942441708E0,5.655444521E-1,-1.447823220E1,-2.362649345E-1,1.449119972E1
4.952378708E0,-1.105768414E0,-1.492909931E1,-1.148004314E0,1.501394831E1
4.962314708E0,-2.496726585E0,-1.486518106E1,-1.823016829E0,1.518323555E1
4.972250708E0,-3.635577376E0,-1.449728126E1,-2.327686066E0,1.512635810E1
4.982186708E0,-4.708593196E0,-1.412059895E1,-2.814719222E0,1.514875602E1
4.992123708E0,-5.722309771E0,-1.366103470E1,-3.263898820E0,1.516646741E1
5.002059708E0,-6.560637358E0,-1.290726428E1,-3.526190296E0,1.490212910E1
5.011995708E0,-7.072628916E0,-1.202447622E1,-3.435980038E0,1.436718717E1
5.021932708E0,-7.199688912E0,-1.141445960E1,-3.231757845E0,1.387694733E1
5.031868708E0,-7.164495106E0,-1.087944873E1,-2.866096367E0,1.333817465E1
5.041804708E0,-6.791776038E0,-1.022132940E1,-2.281828546E0,1.248240914E1
5.051740708E0,-6.474690304E0,-9.709195756E0,-1.672652755E0,1.178931143E1
5.061677708E0,-6.501599776E0,-9.252397236E0,-1.230112086E0,1.137500901E1
5.071613708E0,-6.907433964E0,-8.848513679E0,-9.900593251E-1,1.126894209E1
5.081549708E0,-7.579666128E0,-8.784674948E0,-1.022135396E0,1.164760118E1
5.091486708E0,-8.522460655E0,-8.740283471E0,-1.291679174E0,1.227572099E1
5.101422708E0,-9.159253430E0,-8.746189159E0,-1.672043476E0,1.277432885E1
5.111358708E0,-9.442786086E0,-8.794827468E0,-2.002078453E0,1.305846535E1
5.121295708E0,-9.471591809E0,-8.694516730E0,-2.299846741E0,1.306120085E1
5.131231708E0,-9.186531276E0,-8.612062218E0,-2.597067729E0,1.285708884E1
5.141167708E0,-8.835867906E0,-8.610766475E0,-2.836681949E0,1.265956656E1
5.151103708E0,-8.479915729E0,-8.755102655E0,-2.907730297E0,1.253059012E1
5.161040708E0,-8.249989176E0,-8.923962641E0,-2.722664167E0,1.245441009E1
5.170976708E0,-8.073816662E0,-9.055406880E0,-2.289657383E0,1.234623182E1
5.180912708E0,-8.050706127E0,-9.120622045E0,-1.809781657E0,1.229938719E1
5.190849708E0,-7.986877336E0,-9.319434979E0,-1.354750165E0,1.234817500E1
5.200785708E0,-7.848165593E0,-9.635848868E0,-9.815065297E-1,1.246622002E1
5.210721708E0,-7.596807826E0,-9.866307517E0,-8.735207357E-1,1.248273014E1
5.220657708E0,-7.183879795E0,-1.015833501E1,-9.247108430E-1,1.247617687E1
5.230594708E0,-6.804955078E0,-1.056308278E1,-1.016685791E0,1.260633894E1
5.240530708E0,-6.477203438E0,-1.104654578E1,-1.237260307E0,1.286511372E1
5.250466708E0,-6.027473617E0,-1.165699509E1,-1.591730214E0,1.321928810E1
5.260403708E0,-5.582498167E0,-1.222768568E1,-1.901578850E0,1.357558783E1
5.270339708E0,-5.149406598E0,-1.271639012E1,-2.183902448E0,1.389217030E1
5.280275708E0,-4.874426371E0,-1.317888733E1,-2.383817436E0,1.425221700E1
5.290211708E0,-4.489327579E0,-1.359890920E1,-2.424221988E0,1.452450501E1
5.300148708E0,-3.950166349E0,-1.397650368E1,-2.127279035E0,1.467895723E1
5.310084708E0,-3.243432396E0,-1.423805314E1,-1.487072071E0,1.467833078E1
5.320020708E0,-1.771491750E0,-1.440226284E1,-8.493691769E-1,1.453563848E1
5.329957708E0,3.873224884E-1,-1.437276948E1,-2.898502806E-1,1.438090868E1
5.339893708E0,3.268188338E0,-1.377324043E1,8.801521361E-2,1.415595117E1
5.349829708E0,6.261223079E0,-1.268777852E1,-3.362353653E-2,1.414863134E1
5.359765708E0,8.764289215E0,-1.172565193E1,-2.249689910E-1,1.464084320E1
5.369702708E0,1.001787086E1,-1.054909274E1,3.660900789E-1,1.455249518E1
5.379638708E0,1.025664308E1,-8.975520465E0,3.054569962E0,1.396742970E1
5.389574708E0,1.027211481E1,-7.510135717E0,6.703481913E0,1.438245983E1
5.399511708E0,9.573092456E0,-6.495689410E0,9.137845604E0,1.474239812E1
5.409447708E0,8.473363339E0,-5.961121752E0,1.018117306E1,1.452546535E1
5.419383708E0,8.502450314E0,-5.312892993E0,9.839065340E0,1.404726664E1
5.429319708E0,1.023843251E1,-4.355375762E0,7.118780989E0,1.320877894E1
5.439256708E0,1.154619503E1,-3.179003681E0,3.509460535E0,1.247946302E1
5.449192708E0,1.319913741E1,-2.172852234E0,8.306542861E-1,1.340255579E1
5.459128708E0,1.586935381E1,-1.501094571E0,-4.025018603E-1,1.594527149E1
5.469065708E0,1.747262058E1,1.262295453E-1,1.403777314E0,1.752937519E1
5.479001708E0,1.780954650E1,2.217229969E0,5.546084631E0,1.878443797E1
5.488937708E0,1.741618793E1,3.411106567E0,9.531372573E0,2.014463485E1
5.498873708E0,1.639372158E1,4.396961160E0,1.228601633E1,2.095312798E1
5.508810708E0,1.581897887E1,5.016394136E0,1.273782133E1,2.092023888E1
5.518746708E0,1.533975511E1,4.657964787E0,1.065158507E1,1.924736313E1
5.528682708E0,1.414734763E1,4.429662006E0,7.194042841E0,1.647797326E1
5.538619708E0,1.326535713E1,3.842618219E0,4.432218116E0,1.450448110E1
5.548555708E0,1.315591245E1,3.277190419E0,3.368507555E0,1.397014147E1
5.558491708E0,1.360901202E1,3.422659496E0,3.480648673E0,1.445803311E1
5.568428708E0,1.422284921E1,3.742510086E0,4.269219671E0,1.531411304E1
5.578364708E0,1.504473619E1,3.827083921E0,5.404719422E0,1.643781160E1
5.588300708E0,1.606628218E1,3.948362190E0,6.479542909E0,1.776793357E1
5.598236708E0,1.711944290E1,3.951413267E0,6.632656928E0,1.877980644E1
5.608173708E0,1.728024718E1,3.574960168E0,5.675230329E0,1.853632979E1
5.618109708E0,1.614227961E1,2.491845037E0,4.310109542E0,1.689258793E1
5.628045708E0,1.466099979E1,7.117230892E-1,3.301802226E0,1.504504446E1
5.637982708E0,1.326236218E1,-1.260242496E0,2.687976730E0,1.359057323E1
5.647918708E0,1.233292737E1,-2.431314368E0,2.594568629E0,1.283527068E1
5.657854708E0,1.185534434E1,-2.803737566E0,3.191972513E0,1.259360244E1
5.667790708E0,1.184128763E1,-3.763829034E0,3.608564409E0,1.293847900E1
5.677727708E0,1.215175841E1,-4.929511528E0,3.734200315E0,1.363486591E1
5.687663708E0,1.188104168E1,-5.473501389E0,3.946565341E0,1.366359202E1
5.697599708E0,1.134072387E1,-6.171778806E0,3.910472817E0,1.349053999E1
5.707536708E0,1.091775617E1,-7.360263979E0,3.647635796E0,1.366294744E1
5.717472708E0,1.016335075E1,-8.235468786E0,3.657528993E0,1.358286284E1
5.727408708E0,9.454513847E0,-8.784919361E0,3.869242638E0,1.347344347E1
5.737345708E0,8.449646448E0,-9.503647415E0,4.104031151E0,1.336259372E1
5.747281708E0,7.454678385E0,-1.048083936E1,3.961612858E0,1.345788244E1
5.757217708E0,6.765044907E0,-1.160956482E1,3.451425458E0,1.387300132E1
5.767153708E0,6.139842483E0,-1.235281609E1,2.870644624E0,1.409007919E1
5.777090708E0,5.393463532E0,-1.242389952E1,2.558555628E0,1.378364738E1
5.787026708E0,4.657247626E0,-1.271446170E1,2.159595280E0,1.371172285E1
5.796962708E0,3.883613632E0,-1.281960166E1,1.895399512E0,1.352838426E1
5.806899708E0,2.851646728E0,-1.270901210E1,1.814499483E0,1.315079032E1
5.816835708E0,1.595240298E0,-1.282456477E1,1.450457976E0,1.300454081E1
5.826771708E0,3.640397528E-1,-1.341843138E1,8.046610737E-1,1.344746464E1
5.836707708E0,-1.020659266E0,-1.378841980E1,3.076245005E-1,1.382956611E1
5.846644708E0,-2.272530011E0,-1.382875507E1,-2.332483560E-1,1.401617866E1
5.856580708E0,-3.637798440E0,-1.369803588E1,-1.209029365E0,1.422432833E1
5.866516708E0,-4.884479197E0,-1.345495309E1,-2.407251322E0,1.451512173E1
5.876453708E0,-6.073507576E0,-1.298969716E1,-3.520328463E0,1.476524429E1
5.886389708E0,-7.000086604E0,-1.221273084E1,-4.061004707E0,1.465072579E1
5.896325708E0,-7.282354508E0,-1.139011297E1,-3.667379504E0,1.400774903E1
5.906261708E0,-7.220091602E0,-1.071067469E1,-2.902916284E0,1.323915398E1
5.916198708E0,-7.157901785E0,-1.011409614E1,-2.090816967E0,1.256590683E1
5.926134500E0,-6.945758954E0,-9.733227228E0,-1.393104392E0,1.203827311E1
5.936070500E0,-6.857744325E0,-9.421623259E0,-8.863444106E-1,1.168679804E1
5.946007500E0,-7.047071321E0,-9.041265389E0,-5.093849424E-1,1.147454431E1
5.955943500E0,-7.394608769E0,-8.801835941E0,-3.350016028E-1,1.150064263E1
5.965879500E0,-7.935989603E0,-8.878052058E0,-1.502442793E-1,1.190891736E1
5.975816500E0,-8.642034461E0,-9.079095120E0,-6.504208803E-2,1.253471014E1
5.985752500E0,-9.390803170E0,-9.224532915E0,-2.616482093E-1,1.316615553E1
5.995688500E0,-9.938221253E0,-9.290132827E0,-4.236495582E-1,1.361081513E1
6.005624500E0,-1.032971339E1,-9.358301421E0,-3.603475285E-1,1.394312141E1
6.015561500E0,-1.040755737E1,-9.442524131E0,-2.062816552E-1,1.405421875E1
6.025497500E0,-1.004813137E1,-9.638556129E0,-3.709583245E-2,1.392365197E1
6.035433500E0,-9.534463411E0,-9.710373386E0,7.266868450E-2,1.360891710E1
6.045370500E0,-9.047052963E0,-9.688225302E0,7.485020757E-2,1.325580927E1
6.055306500E0,-8.606649451E0,-9.760039051E0,-1.389169069E-1,1.301353430E1
6.065242500E0,-8.216362424E0,-1.005013930E1,-5.457066035E-1,1.299275595E1
6.075179500E0,-8.001201845E0,-1.052327026E1,-9.550895403E-1,1.325408028E1
6.085115500E0,-7.879753422E0,-1.094824940E1,-1.267585137E0,1.354848520E1
6.095051500E0,-7.897234257E0,-1.103120268E1,-1.389410706E0,1.363760256E1
6.104987500E0,-7.642493876E0,-1.111939741E1,-1.127330972E0,1.353955636E1
6.114924500E0,-7.061858929E0,-1.155578213E1,-9.402300111E-1,1.357534473E1
6.124860500E0,-6.290425828E0,-1.203797277E1,-8.641770313E-1,1.360988785E1
6.134796500E0,-5.536862987E0,-1.247599120E1,-8.301514987E-1,1.367466123E1
6.144733500E0,-4.923240974E0,-1.304927327E1,-8.472815017E-1,1.397282078E1
6.154669500E0,-4.452846508E0,-1.369653666E1,-8.252200301E-1,1.442580835E1
6.164605500E0,-4.270681475E0,-1.428056123E1,-7.382637472E-1,1.492374560E1
6.174541500E0,-4.279316058E0,-1.477548126E1,-7.516948016E-1,1.540105313E1
6.184478500E0,-4.060102481E0,-1.501487679E1,-1.059548074E0,1.559017638E1
6.194414500E0,-3.317286823E0,-1.489891130E1,-1.161183938E0,1.530785086E1
6.204350500E0,-1.897527314E0,-1.475453419E1,-1.015096225E0,1.491064417E1
6.214287500E0,4.579673785E-1,-1.462983413E1,-1.014496009E0,1.467211584E1
6.224223500E0,3.274093441E0,-1.474624752E1,-1.139533745E0,1.514826858E1
6.234159500E0,6.100947974E0,-1.418534400E1,-9.342801037E-1,1.546992017E1
6.244096500E0,8.477484457E0,-1.305382825E1,-2.119504577E-1,1.556647352E1
6.254032500E0,1.071410116E1,-1.183436804E1,8.438561296E-1,1.598612911E1
6.263968500E0,1.295773160E1,-9.860737460E0,2.412134331E0,1.646072123E1
6.273904500E0,1.520103694E1,-7.135700492E0,4.808436449E0,1.746742129E1
6.283841500E0,1.697618144E1,-4.142472793E0,7.042130424E0,1.883991556E1
6.293777500E0,1.742557271E1,-2.242891352E0,7.915009208E0,1.926988626E1
6.303713500E0,1.605346041E1,-2.305817333E0,7.063416043E0,1.768960799E1
6.313650500E0,1.384684050E1,-2.487026347E0,5.479015313E0,1.509767866E1
6.323586500E0,1.215522230E1,-1.889461372E0,4.458929366E0,1.308440081E1
6.333522500E0,1.166482334E1,-9.122931111E-1,4.475260055E0,1.252710401E1
6.343459500E0,1.250233174E1,6.520218480E-1,4.735203289E0,1.338490125E1
6.353395500E0,1.409429116E1,2.407708574E0,4.548716286E0,1.500456343E1
6.363331500E0,1.573962631E1,4.500974063E0,4.313006837E0,1.692916513E1
6.373267500E0,1.721398069E1,7.083363234E0,3.749007512E0,1.898816008E1
6.383204500E0,1.808553859E1,9.411699364E0,2.542100101E0,2.054577971E1
6.393140500E0,1.838646905E1,9.808207244E0,6.240432134E-1,2.084832375E1
6.403076500E0,1.809402640E1,8.782004524E0,-1.085339704E0,2.014188068E1
6.413013500E0,1.745541456E1,7.267981467E0,-1.405092061E0,1.896020400E1
6.422949500E0,1.643058009E1,6.166585894E0,-4.570593059E-2,1.754972458E1
6.432885500E0,1.531168731E1,5.118598788E0,1.833941767E0,1.624842036E1
6.442822500E0,1.440347555E1,3.783927376E0,3.425711450E0,1.528115550E1
6.452758500E0,1.399848219E1,2.680335881E0,4.562678268E0,1.496528440E1
6.462694500E0,1.421249730E1,1.880951042E0,5.243190089E0,1.526512688E1
6.472630500E0,1.479393975E1,1.618601971E0,5.784880825E0,1.596700886E1
6.482567500E0,1.537583360E1,1.707484911E0,5.984317657E0,1.658745977E1
6.492503500E0,1.603499490E1,9.997776899E-1,5.651346207E0,1.703109893E1
6.502439500E0,1.636035854E1,-3.499924019E-3,5.218382692E0,1.717244484E1
6.512376500E0,1.577483356E1,-4.378006606E-1,5.216741964E0,1.662081346E1
6.522312500E0,1.449801450E1,-9.773951331E-1,5.266338047E0,1.545580934E1
6.532248500E0,1.325878369E1,-2.084447303E0,4.835065839E0,1.426597796E1
6.542185500E0,1.237346261E1,-3.757388034E0,4.213577274E0,1.360054320E1
6.552121500E0,1.179920873E1,-5.171579239E0,3.933510847E0,1.346993193E1
6.562057500E0,1.121856618E1,-5.855411110E0,4.195326068E0,1.333202263E1
6.571993500E0,1.069623207E1,-6.255917900E0,4.524774277E0,1.319164400E1
6.581930500E0,1.043736180E1,-7.214815074E0,4.362952584E0,1.341743020E1
6.591866500E0,1.004639006E1,-8.290843087E0,3.966289169E0,1.361614785E1
6.601802500E0,9.194709191E0,-9.092637271E0,3.648630407E0,1.343619118E1
6.611739500E0,8.116635822E0,-9.801047913E0,3.434322352E0,1.318085306E1
6.621675500E0,7.136188150E0,-1.060599550E1,3.240161756E0,1.318753086E1
6.631611500E0,6.368932300E0,-1.159058242E1,2.981245877E0,1.355701761E1
6.641548500E0,5.615608025E0,-1.239188251E1,2.638083608E0,1.385832929E1
6.651484500E0,4.787204332E0,-1.269133246E1,2.099228187E0,1.372566952E1
6.661420500E0,3.875470800E0,-1.268630151E1,1.420772539E0,1.334091881E1
6.671356500E0,3.197499593E0,-1.270340813E1,7.714725700E-1,1.312233789E1
6.681293500E0,2.659626505E0,-1.315895534E1,9.739473224E-2,1.342539402E1
6.691229500E0,1.658181481E0,-1.344014794E1,-3.304977849E-1,1.354608325E1
6.701165500E0,8.525784212E-1,-1.367070600E1,-6.584274727E-1,1.371308204E1
6.711102500E0,3.427795690E-1,-1.419195487E1,-1.031705972E0,1.423353427E1
6.721038500E0,-2.002224049E-1,-1.478693479E1,-1.428377135E0,1.485711246E1
6.730974500E0,-1.033429585E0,-1.453792058E1,-1.464140607E0,1.464796297E1
6.740911500E0,-1.830322341E0,-1.384576929E1,-1.422884846E0,1.403851874E1
6.750847500E0,-2.789996317E0,-1.352278547E1,-1.624103909E0,1.390278821E1
6.760783500E0,-4.093248008E0,-1.345165760E1,-1.909541588E0,1.418971883E1
6.770719500E0,-5.426544154E0,-1.335570012E1,-2.229407527E0,1.458740433E1
6.780656500E0,-6.357651851E0,-1.315861854E1,-2.344673835E0,1.480089438E1
6.790592500E0,-6.878684959E0,-1.284390970E1,-2.297036569E0,1.474987119E1
6.800528500E0,-7.274310493E0,-1.232371099E1,-2.193492905E0,1.447759845E1
6.810465500E0,-7.620981969E0,-1.176017740E1,-2.128454325E0,1.417432384E1
6.820401500E0,-8.165531994E0,-1.129234869E1,-2.022369461E0,1.408130072E1
6.830337500E0,-8.831881859E0,-1.087035397E1,-1.874227914E0,1.413079838E1
6.840274500E0,-9.656417618E0,-1.051762419E1,-1.779470860E0,1.438865304E1
6.850210500E0,-1.047750411E1,-1.009678488E1,-1.782585087E0,1.465949408E1
6.860146500E0,-1.095896852E1,-9.371565830E0,-1.641694087E0,1.451276668E1
6.870083500E0,-1.107111227E1,-8.584712452E0,-1.373130888E0,1.407665810E1
6.880019500E0,-1.100271037E1,-8.262326801E0,-1.238036233E0,1.381515159E1
6.889955500E0,-1.103392047E1,-8.287106717E0,-1.218696567E0,1.385311373E1
6.899891500E0,-1.107527432E1,-8.497388379E0,-1.211609230E0,1.401197015E1
6.909828500E0,-1.112990251E1,-8.626886664E0,-1.241850371E0,1.413648103E1
6.919764500E0,-1.109329193E1,-8.853834060E0,-1.400933813E0,1.426233217E1
6.929700833E0,-1.105383024E1,-9.233714797E0,-1.619448355E0,1.449383541E1
6.939637833E0,-1.096453741E1,-9.436841807E0,-1.878839613E0,1.458784090E1
6.949573833E0,-1.054332621E1,-9.708558410E0,-2.020885438E0,1.447417742E1
6.959509833E0,-9.952523543E0,-1.005874055E1,-2.025709391E0,1.429456138E1
6.969446833E0,-9.159009016E0,-1.035767127E1,-1.964863849E0,1.396529592E1
6.979382833E0,-8.057649111E0,-1.061672163E1,-1.927042889E0,1.346677325E1
6.989318833E0,-6.849248321E0,-1.094119415E1,-2.029128258E0,1.306672467E1
6.999254833E0,-5.812815313E0,-1.141571792E1,-2.281760280E0,1.301206623E1
7.009191833E0,-5.030531534E0,-1.165674717E1,-2.417605133E0,1.292404026E1
7.019127833E0,-4.430490556E0,-1.167595761E1,-2.277761077E0,1.269430692E1
7.029063833E0,-3.963030515E0,-1.180212766E1,-2.110418589E0,1.262733918E1
7.039000833E0,-3.290883428E0,-1.204343056E1,-1.864559543E0,1.262341933E1
7.048936833E0,-2.415339190E0,-1.231909988E1,-1.559344533E0,1.265012413E1
7.058872833E0,-1.247323365E0,-1.243115943E1,-1.017763140E0,1.253496638E1
7.068809833E0,4.100389212E-1,-1.220884712E1,-2.965216613E-1,1.221932915E1
7.078745833E0,2.425730862E0,-1.149554645E1,2.582700536E-1,1.175153019E1
7.088681833E0,4.099346654E0,-1.096526948E1,5.165403995E-1,1.171787488E1
7.098618833E0,5.361542412E0,-1.058714875E1,1.947950193E-1,1.186894270E1
7.108554833E0,6.255674071E0,-9.809467319E0,-4.647516105E-1,1.164367215E1
7.118490833E0,6.706096203E0,-8.943052046E0,-6.607692826E-1,1.119761234E1
7.128426833E0,7.697184638E0,-7.798851930E0,2.413517198E-1,1.096024605E1
7.138363833E0,9.648991655E0,-6.540714140E0,1.455881561E0,1.174749218E1
7.148299833E0,1.126520591E1,-5.187819296E0,2.957685691E0,1.275014659E1
7.158235833E0,1.179227393E1,-3.871230984E0,4.287436963E0,1.313111837E1
7.168172833E0,1.153888601E1,-3.024868737E0,4.914829170E0,1.290159940E1
7.178108833E0,1.081991355E1,-3.009920915E0,5.042228304E0,1.231073594E1
7.188044833E0,9.640841221E0,-3.341337590E0,4.859777049E0,1.130167197E1
7.197981833E0,8.877504759E0,-3.403925602E0,4.539056686E0,1.053564596E1
7.207917833E0,8.609227488E0,-2.772411401E0,4.625441696E0,1.015872895E1
7.217853833E0,9.175374788E0,-1.109714992E0,4.266457154E0,1.017947084E1
7.227789833E0,9.826560484E0,4.800871029E-1,3.121324407E0,1.032155224E1
7.237726833E0,1.034502842E1,4.224806267E-1,1.634843782E0,1.048192812E1
7.247662833E0,1.056675601E1,-1.745744705E-2,8.764508486E-1,1.060305632E1
7.257598833E0,1.128696223E1,2.890229727E-1,8.123470925E-1,1.131984799E1
7.267535833E0,1.275508582E1,1.321649662E0,1.631369513E0,1.292672962E1
7.277471833E0,1.400245596E1,3.573272077E0,3.209203088E0,1.480324393E1
7.287407833E0,1.498124946E1,5.646147448E0,4.426652151E0,1.661060100E1
7.297344833E0,1.553794415E1,6.793932492E0,4.695340189E0,1.759634753E1
7.307280833E0,1.528347332E1,7.146429548E0,3.877351849E0,1.731155306E1
7.317216833E0,1.401318794E1,6.503737518E0,2.058270488E0,1.558539430E1
7.327153833E0,1.297662513E1,5.470777756E0,5.379169428E-1,1.409296149E1
7.337089833E0,1.253940074E1,4.977839350E0,1.122030982E-1,1.349177695E1
7.347025833E0,1.272558077E1,5.225240307E0,4.737767878E-1,1.376473780E1
7.356961833E0,1.322484645E1,5.597831320E0,1.157531475E0,1.440736472E1
7.366898833E0,1.384806842E1,5.883228654E0,1.575234050E0,1.512821009E1
7.376834833E0,1.444327989E1,6.025153441E0,1.652813737E0,1.573666423E1
7.386770833E0,1.509877615E1,5.292751089E0,1.330586254E0,1.605480349E1
7.396707833E0,1.564106097E1,4.057021291E0,8.898415571E-1,1.618314023E1
7.406643833E0,1.561597524E1,2.888967459E0,8.640948048E-1,1.590444829E1
7.416579833E0,1.515505209E1,1.777798557E0,1.185784344E0,1.530497488E1
7.426516833E0,1.448338126E1,5.181662178E-1,1.575997988E0,1.457808625E1
7.436452833E0,1.375618293E1,-7.645596993E-1,1.995790358E0,1.392121760E1
7.446388833E0,1.310588367E1,-1.798313513E0,2.484224653E0,1.345992164E1
7.456325833E0,1.290618255E1,-2.960432129E0,2.683564713E0,1.351055979E1
7.466261833E0,1.279273955E1,-4.063657004E0,2.720803876E0,1.369562949E1
7.476197833E0,1.239385653E1,-5.214389044E0,2.667279048E0,1.370809652E1
7.486133833E0,1.159281021E1,-6.114394231E0,2.856315145E0,1.341408221E1
7.496070833E0,1.051824049E1,-6.947645851E0,3.041239187E0,1.296735523E1
7.506006833E0,9.645296799E0,-8.196906399E0,3.078488290E0,1.302682290E1
7.515942833E0,8.742001968E0,-9.252837532E0,3.062612222E0,1.309263894E1
7.525879833E0,7.697590435E0,-9.786321700E0,3.030722970E0,1.281445561E1
7.535815833E0,6.899489937E0,-1.036984283E1,2.759623248E0,1.275743400E1
7.545751833E0,6.080901380E0,-1.123718723E1,2.381989596E0,1.299713864E1
7.555688833E0,4.977824147E0,-1.187419576E1,2.009062075E0,1.303117756E1
7.565624833E0,4.011579947E0,-1.242362354E1,1.668276114E0,1.316139585E1
7.575560833E0,3.190261325E0,-1.293298852E1,1.277875359E0,1.338181322E1
7.585497833E0,2.379618550E0,-1.285218234E1,8.174960044E-1,1.309616261E1
7.595433833E0,1.507393484E0,-1.279810612E1,2.991476458E-1,1.289004441E1
7.605369833E0,5.318668288E-1,-1.303771450E1,-1.713047075E-1,1.304968302E1
7.615305833E0,-4.233226258E-1,-1.346230070E1,-6.585194202E-1,1.348504320E1
7.625242833E0,-1.478757038E0,-1.403800937E1,-9.780915365E-1,1.414952623E1
7.635178833E0,-2.729744853E0,-1.418967211E1,-1.100482385E0,1.449169980E1
7.645114833E0,-4.035247137E0,-1.394929775E1,-1.260291466E0,1.457581771E1
7.655051833E0,-5.310958149E0,-1.356229862E1,-1.393852835E0,1.463164536E1
7.664987833E0,-6.432914872E0,-1.321633992E1,-1.768102265E0,1.480473641E1
7.674923833E0,-7.225975070E0,-1.291580824E1,-2.223431965E0,1.496584337E1
7.684860833E0,-7.795002708E0,-1.237399237E1,-2.340263280E0,1.481062411E1
7.694796833E0,-8.080632176E0,-1.153113027E1,-2.062604152E0,1.423087901E1
7.704732833E0,-8.255452815E0,-1.065618800E1,-1.789263192E0,1.359809938E1
7.714669833E0,-8.300843580E0,-9.982616823E0,-1.730587114E0,1.309776983E1
7.724605833E0,-8.333213181E0,-9.545164985E0,-1.953213857E0,1.282059518E1
7.734541833E0,-8.564053069E0,-9.313166764E0,-2.306702017E0,1.286075248E1
7.744478833E0,-8.903181052E0,-9.145615384E0,-2.443252044E0,1.299532201E1
7.754414833E0,-9.220966113E0,-8.901380695E0,-2.429668377E0,1.304469558E1
7.764350833E0,-9.439946094E0,-8.730730875E0,-2.422566349E0,1.308461201E1
7.774286833E0,-9.709597460E0,-8.538132947E0,-2.390776792E0,1.314883306E1
7.784223833E0,-9.824331526E0,-8.411774617E0,-2.367904823E0,1.314847578E1
7.794159833E0,-9.840361083E0,-8.258600371E0,-2.399810740E0,1.306890500E1
7.804095833E0,-9.691357656E0,-8.348096684E0,-2.414796569E0,1.301708008E1
7.814032833E0,-9.535439896E0,-8.565966278E0,-2.283399693E0,1.301976599E1
7.823968833E0,-9.390303233E0,-8.840822251E0,-2.108193723E0,1.306837456E1
7.833904833E0,-9.393096448E0,-9.036468333E0,-1.929917380E0,1.317621349E1
7.843841833E0,-9.282882280E0,-9.305128012E0,-1.882745553E0,1.327787790E1
7.853777833E0,-8.940265848E0,-9.682131919E0,-1.742426410E0,1.329315921E1
7.863713833E0,-8.544141546E0,-1.011852015E1,-1.633027929E0,1.334367209E1
7.873650833E0,-8.196097729E0,-1.047015883E1,-1.602589079E0,1.339285391E1
7.883586833E0,-7.775843722E0,-1.069928081E1,-1.704889625E0,1.333585408E1
7.893522833E0,-7.353140316E0,-1.094091466E1,-1.669186380E0,1.328753059E1
7.903459833E0,-6.817548226E0,-1.118856763E1,-1.579430596E0,1.319687881E1
7.913395833E0,-6.175021087E0,-1.133702025E1,-1.358561965E0,1.298093233E1
7.923331833E0,-5.376977892E0,-1.121300431E1,-1.070786715E0,1.248158408E1
7.933271208E0,-4.378822220E0,-1.111025938E1,-9.453879131E-1,1.197938670E1
7.943208208E0,-3.478295168E0,-1.104022611E1,-9.545719886E-1,1.161448826E1
7.953144208E0,-2.661978255E0,-1.114154900E1,-9.524402399E-1,1.149466766E1
7.963080208E0,-2.121202024E0,-1.141554952E1,-9.286349094E-1,1.164803124E1
7.973017208E0,-1.806039439E0,-1.164430196E1,-8.984252697E-1,1.181772882E1
7.982953208E0,-1.298053223E0,-1.169911376E1,-8.095642564E-1,1.179871176E1
7.992889208E0,-9.997978628E-2,-1.152900656E1,-6.299965560E-1,1.154663950E1
8.002826208E0,1.651915020E0,-1.063558475E1,-3.235077310E-1,1.076796840E1
8.012762208E0,3.583263214E0,-9.378806437E0,1.414675355E-1,1.004100585E1
8.022698208E0,5.513189950E0,-8.534133452E0,3.789179930E-1,1.016711739E1
8.032635208E0,7.257646514E0,-8.622324082E0,4.680333602E-1,1.127993620E1
8.042571208E0,8.620777493E0,-8.939240246E0,6.848738444E-1,1.243771976E1
8.052507208E0,9.572225314E0,-8.797116069E0,1.260128183E0,1.306157233E1
8.062444208E0,1.007681781E1,-8.219236915E0,2.339435315E0,1.321253458E1
8.072380208E0,1.063149053E1,-6.720277455E0,3.965999731E0,1.318786843E1
8.082316208E0,1.166359192E1,-5.753484201E0,5.593823054E0,1.415742961E1
8.092252208E0,1.211744578E1,-4.580864278E0,7.403383101E0,1.492068669E1
8.102189208E0,1.250703524E1,-2.236062974E0,8.672785553E0,1.538320894E1
8.112125208E0,1.301301001E1,-8.832228014E-1,8.320343460E0,1.547083150E1
8.122061208E0,1.290018564E1,-5.165105056E-1,6.823340478E0,1.460272399E1
8.131998208E0,1.282084478E1,-4.305304885E-1,4.950127641E0,1.375002476E1
8.141934208E0,1.270375428E1,-5.174239138E-1,3.442019627E0,1.317196263E1
8.151870208E0,1.253748286E1,5.540757233E-1,2.893108749E0,1.287888017E1
8.161807208E0,1.263943491E1,1.677040798E0,3.187733574E0,1.314265673E1
8.171743208E0,1.293412756E1,2.858892598E0,4.145528548E0,1.387985337E1
8.181679208E0,1.341795074E1,4.126199699E0,5.028499042E0,1.491149653E1
8.191616208E0,1.394277928E1,4.490382124E0,5.196958494E0,1.554261893E1
8.201552208E0,1.424763907E1,4.559290684E0,4.980234954E0,1.576658146E1
8.211488208E0,1.436704623E1,4.873909185E0,4.433307160E0,1.580573379E1
8.221425208E0,1.454799417E1,5.201546804E0,3.634743855E0,1.587172285E1
8.231361208E0,1.478991920E1,5.325915327E0,2.817471214E0,1.597013551E1
8.241297208E0,1.487940148E1,5.286229105E0,2.445251499E0,1.597873780E1
8.251234208E0,1.507278879E1,4.915408044E0,2.368820789E0,1.603001903E1
8.261170208E0,1.505152363E1,4.517705871E0,2.367959494E0,1.589230198E1
8.271106208E0,1.467022085E1,4.211604424E0,2.664388477E0,1.549361022E1
8.281042208E0,1.412788692E1,3.596590188E0,2.932528338E0,1.487052025E1
8.290979208E0,1.354363431E1,2.830074595E0,3.147240436E0,1.418959037E1
8.300915208E0,1.290297126E1,2.140697956E0,3.211836966E0,1.346793049E1
8.310851208E0,1.235101983E1,1.413614816E0,2.988104661E0,1.278572513E1
8.320788208E0,1.220280461E1,4.844825280E-1,2.532209536E0,1.247217899E1
8.330724208E0,1.210306865E1,-6.550088981E-1,2.023538319E0,1.228853184E1
8.340660208E0,1.178447024E1,-1.444283024E0,1.853051053E0,1.201638425E1
8.350597208E0,1.159798265E1,-2.335191698E0,2.044810198E0,1.200614720E1
8.360533208E0,1.145434463E1,-3.394460129E0,2.653221465E0,1.223780841E1
8.370469208E0,1.148626575E1,-4.521800968E0,3.290387292E0,1.277527430E1
8.380406208E0,1.148093777E1,-6.007018887E0,3.700975851E0,1.347566066E1
8.390342208E0,1.102526425E1,-7.100912483E0,4.094449318E0,1.373841057E1
8.400278208E0,1.037481297E1,-8.207185804E0,4.193113481E0,1.387720590E1
8.410215208E0,9.458563043E0,-9.497241790E0,4.000665534E0,1.398811428E1
8.420151208E0,8.229512227E0,-1.071657220E1,3.564572882E0,1.397411790E1
8.430087208E0,6.966459267E0,-1.154260718E1,3.186851521E0,1.385349623E1
8.440024208E0,5.790017020E0,-1.222201856E1,2.779688846E0,1.380683544E1
8.449960208E0,4.790789845E0,-1.290620594E1,2.321322102E0,1.396102988E1
8.459896208E0,4.023208889E0,-1.323290391E1,1.901760406E0,1.396111200E1
8.469832208E0,3.585981000E0,-1.359398117E1,1.345411577E0,1.412323320E1
8.479769208E0,2.761666265E0,-1.371308077E1,1.005024689E0,1.402445932E1
8.489705208E0,1.695044083E0,-1.348268761E1,7.375078484E-1,1.360881910E1
8.499641208E0,6.204036140E-1,-1.318374988E1,4.098474249E-1,1.320470130E1
8.509578208E0,-4.732882529E-1,-1.307840059E1,-3.639102370E-2,1.308701219E1
8.519514208E0,-1.466852984E0,-1.313972268E1,-5.274404866E-1,1.323186167E1
8.529450208E0,-2.488346940E0,-1.301122193E1,-8.905964327E-1,1.327693220E1
8.539387208E0,-3.517287033E0,-1.294942973E1,-1.229483364E0,1.347481605E1
8.549323208E0,-4.572122983E0,-1.302235503E1,-1.681203139E0,1.390368595E1
8.559259208E0,-5.738148124E0,-1.298363360E1,-2.193516586E0,1.436358591E1
8.569196208E0,-7.074433367E0,-1.269059571E1,-2.722868820E0,1.478217986E1
8.579132208E0,-8.358045137E0,-1.228713315E1,-3.145286297E0,1.518958148E1
8.589068208E0,-9.337649640E0,-1.167638914E1,-3.330237236E0,1.531731844E1
8.599005208E0,-9.876075876E0,-1.090372403E1,-3.261111453E0,1.506860711E1
8.608941208E0,-1.007817787E1,-1.021549505E1,-3.300949702E0,1.472488632E1
8.618877208E0,-1.009410451E1,-9.574515084E0,-3.200642472E0,1.427607780E1
8.628814208E0,-9.751644203E0,-8.988534029E0,-2.778481688E0,1.355021288E1
8.638750208E0,-9.425681226E0,-8.459852178E0,-2.384046062E0,1.288783306E1
8.648686208E0,-9.263337961E0,-7.936628703E0,-1.990533711E0,1.235968162E1
8.658623208E0,-9.209347111E0,-7.435249257E0,-1.580636292E0,1.194124855E1
8.668559208E0,-9.157895706E0,-7.092543363E0,-1.237173184E0,1.164911252E1
8.678495208E0,-9.261184432E0,-7.028794679E0,-9.273952997E-1,1.166334231E1
8.688432208E0,-9.241351846E0,-7.043488147E0,-7.739427263E-1,1.164526928E1
8.698368208E0,-9.071825861E0,-7.130570145E0,-7.877865940E-1,1.156562418E1
8.708304208E0,-8.883014005E0,-7.432482355E0,-9.725246948E-1,1.162306053E1
8.718240208E0,-8.681761029E0,-7.586652381E0,-1.163756129E0,1.158812311E1
8.728177208E0,-8.492628745E0,-7.632632546E0,-1.349094154E0,1.149790753E1
8.738113208E0,-8.264699602E0,-7.732673728E0,-1.659185594E0,1.143907336E1
8.748049208E0,-7.934312037E0,-7.933981084E0,-2.064740725E0,1.140896654E1
8.757986208E0,-7.636299920E0,-8.219968987E0,-2.533053582E0,1.150205751E1
8.767922208E0,-7.340238435E0,-8.576556755E0,-2.976463147E0,1.167457746E1
8.777858208E0,-6.994453397E0,-9.125217372E0,-3.376266518E0,1.198295231E1
8.787795208E0,-6.708097705E0,-9.793260006E0,-3.727478356E0,1.244188938E1
8.797731208E0,-6.507208425E0,-1.040780062E1,-3.858189354E0,1.286668956E1
8.807667208E0,-6.164731742E0,-1.087907684E1,-3.742382909E0,1.305234309E1
8.817604208E0,-5.912227335E0,-1.120925040E1,-3.359597275E0,1.311063006E1
8.827540208E0,-5.753766037E0,-1.151914932E1,-2.766644000E0,1.317007759E1
8.837476208E0,-5.293464450E0,-1.192274987E1,-2.193954835E0,1.322823375E1
8.847413208E0,-4.519393085E0,-1.247829383E1,-1.854763117E0,1.340048048E1
8.857349208E0,-3.493911327E0,-1.281046129E1,-1.679088201E0,1.338412014E1
8.867285208E0,-2.223939942E0,-1.281691662E1,-1.489082928E0,1.309338109E1
8.877222208E0,-9.301984549E-1,-1.273727988E1,-1.541389781E0,1.286388162E1
8.887158208E0,4.623615611E-1,-1.234493639E1,-1.557406181E0,1.245137529E1
8.897094208E0,2.002814618E0,-1.193041557E1,-1.263416364E0,1.216315350E1
8.907031208E0,3.721290833E0,-1.112033881E1,-4.629211396E-1,1.173559699E1
8.916967208E0,5.641862608E0,-9.732970535E0,4.920110375E-1,1.126070175E1
8.926903208E0,7.362223966E0,-8.703919637E0,1.271118902E0,1.147067139E1
8.936837458E0,8.559391084E0,-8.103541567E0,1.759841757E0,1.191753350E1
8.946773458E0,9.654258826E0,-7.418692866E0,2.187819059E0,1.237045955E1
8.956709458E0,1.054829518E1,-6.607772933E0,3.055027799E0,1.281648895E1
8.966646458E0,1.116970217E1,-5.600803460E0,4.425313139E0,1.325573998E1
8.976582458E0,1.180034192E1,-5.084679090E0,5.596454301E0,1.401507516E1
8.986518458E0,1.215224490E1,-4.363111921E0,6.518649087E0,1.446397552E1
8.996455458E0,1.188972597E1,-2.509860016E0,6.949566661E0,1.399862342E1
9.006391458E0,1.101553448E1,-5.951354563E-1,6.419347578E0,1.276339334E1
9.016327458E0,1.034859522E1,-1.066625398E0,4.536302648E0,1.134941208E1
9.026263458E0,9.892111280E0,-2.242571509E0,2.826875584E0,1.052968272E1
9.036200458E0,9.667780513E0,-1.633204954E0,2.243913738E0,1.005825469E1
9.046136458E0,9.876639547E0,-3.115843812E-1,2.627366831E0,1.022487897E1
9.056072458E0,9.868027768E0,4.055219471E-1,3.546124624E0,1.049368476E1
9.066009458E0,9.540744490E0,9.780557223E-1,4.695649507E0,1.067855434E1
9.075945458E0,9.137305906E0,1.355054513E0,5.834716644E0,1.092567848E1
9.085881458E0,8.878595265E0,1.003252105E0,6.166996368E0,1.085669438E1
9.095818458E0,8.622860856E0,5.087095159E-1,6.000725529E0,1.051766236E1
9.105754458E0,8.902873489E0,7.896457162E-1,5.654482069E0,1.057628783E1
9.115690458E0,9.973988671E0,1.472371001E0,5.538052311E0,1.150297135E1
9.125627458E0,1.116996413E1,2.698008505E0,5.978699652E0,1.295346278E1
9.135563458E0,1.249703650E1,3.946951549E0,6.508214146E0,1.463253905E1
9.145499458E0,1.361818397E1,4.729751930E0,6.929439375E0,1.599508105E1
9.155436458E0,1.452511752E1,5.432654495E0,6.988361768E0,1.700970235E1
9.165372458E0,1.499043075E1,5.619956599E0,6.396951572E0,1.724000916E1
9.175308458E0,1.495799625E1,5.140005444E0,5.470723962E0,1.673589342E1
9.185245458E0,1.489876629E1,4.178786341E0,4.653874952E0,1.615840476E1
9.195181458E0,1.473234518E1,3.183813016E0,4.420240679E0,1.570723360E1
9.205117458E0,1.466227449E1,2.672506459E0,4.615940263E0,1.560229113E1
9.215054458E0,1.481488448E1,2.093299988E0,5.046220783E0,1.579009345E1
9.224990458E0,1.483859961E1,1.501965660E0,5.373805777E0,1.585300375E1
9.234926458E0,1.468263683E1,9.214086279E-1,5.111529504E0,1.557422717E1
9.244863458E0,1.446476139E1,-9.739619404E-2,4.210599287E0,1.506545567E1
9.254799458E0,1.395191965E1,-1.306442078E0,3.443950378E0,1.442995658E1
9.264735458E0,1.353168026E1,-2.876237486E0,2.687362772E0,1.409258782E1
9.274672458E0,1.297394944E1,-4.699133570E0,2.087933998E0,1.395581201E1
9.284608458E0,1.195584394E1,-5.897949604E0,2.235458079E0,1.351759175E1
9.294544458E0,1.071452918E1,-6.830869353E0,2.784374512E0,1.300825327E1
9.304481458E0,9.673069319E0,-8.003538392E0,3.083192375E0,1.292791445E1
9.314417458E0,8.995885148E0,-9.377822351E0,3.155247613E0,1.337254984E1
9.324353458E0,8.104619209E0,-1.020072966E1,3.450822903E0,1.347768218E1
9.334290458E0,7.137114349E0,-1.073815076E1,3.622285485E0,1.339280535E1
9.344226458E0,6.378391340E0,-1.139361545E1,3.371777610E0,1.348581601E1
9.354162458E0,6.101702850E0,-1.177155374E1,3.116911806E0,1.362040360E1
9.364099458E0,6.311022645E0,-1.204301424E1,2.850134053E0,1.389195677E1
9.374035458E0,6.522567891E0,-1.236281717E1,2.394199752E0,1.418151377E1
9.383971458E0,6.053464490E0,-1.259667071E1,1.809860594E0,1.409241430E1
9.393908458E0,5.000227169E0,-1.343659751E1,1.289845195E0,1.439472560E1
9.403844458E0,3.575842513E0,-1.436000384E1,1.335232159E0,1.485864075E1
9.413780458E0,1.990068857E0,-1.494469968E1,1.361166900E0,1.513793903E1
9.423717458E0,2.521260917E-1,-1.553455276E1,9.003156745E-1,1.556266254E1
9.433653458E0,-1.684630777E0,-1.582520499E1,3.096129924E-1,1.591763029E1
9.443589458E0,-3.535635596E0,-1.589502893E1,-4.404173993E-1,1.628946381E1
9.453526458E0,-5.266681863E0,-1.571893886E1,-1.441375642E0,1.664032874E1
9.463462458E0,-7.247391667E0,-1.529966075E1,-2.652327425E0,1.713590225E1
9.473398458E0,-9.044668468E0,-1.459709090E1,-3.631753589E0,1.755194361E1
9.483335458E0,-1.025395219E1,-1.356016438E1,-4.099119782E0,1.748783510E1
9.493271458E0,-1.047788885E1,-1.239465058E1,-3.971700767E0,1.670891752E1
9.503207458E0,-9.708122208E0,-1.120188057E1,-3.343977608E0,1.519578729E1
9.513144458E0,-8.609025174E0,-1.003414015E1,-2.795630402E0,1.351350555E1
9.523080458E0,-7.695913453E0,-9.181307373E0,-2.349508313E0,1.220834462E1
9.533016458E0,-7.095565204E0,-8.691846891E0,-1.890385525E0,1.137843598E1
9.542952458E0,-7.037115852E0,-8.283016589E0,-1.750525389E0,1.100880114E1
9.552889458E0,-7.640661943E0,-8.002084774E0,-1.782744716E0,1.120675039E1
9.562825458E0,-8.456198838E0,-8.158291386E0,-1.766584182E0,1.188216465E1
9.572761458E0,-9.158995568E0,-8.381537495E0,-1.760435250E0,1.253939803E1
9.582698458E0,-9.420792369E0,-8.477240628E0,-1.746362171E0,1.279315123E1
9.592634458E0,-9.344785582E0,-8.569427245E0,-1.794681807E0,1.280550599E1
9.602571458E0,-9.018188767E0,-8.621891388E0,-1.901616856E0,1.262065317E1
9.612507458E0,-8.749246083E0,-8.621458694E0,-2.085980735E0,1.245914013E1
9.622443458E0,-8.679613931E0,-8.544654931E0,-2.325928831E0,1.239986979E1
9.632379458E0,-8.714510114E0,-8.562642136E0,-2.446598405E0,1.245983028E1
9.642316458E0,-8.876278013E0,-8.657229620E0,-2.429815142E0,1.263486991E1
9.652252458E0,-8.859062056E0,-8.955173324E0,-2.294880701E0,1.280408479E1
9.662188458E0,-8.740433160E0,-9.379563652E0,-2.161877595E0,1.300173453E1
9.672125458E0,-8.562250957E0,-9.961711857E0,-1.972216138E0,1.328297712E1
9.682061458E0,-8.360167091E0,-1.066126221E1,-1.791358981E0,1.366615794E1
9.691997458E0,-8.160200502E0,-1.139319211E1,-1.777085927E0,1.412627810E1
9.701934458E0,-7.903742793E0,-1.196357396E1,-1.826025953E0,1.445443264E1
9.711870458E0,-7.646950039E0,-1.237311061E1,-1.657557583E0,1.463957678E1
9.721806458E0,-7.227200646E0,-1.264863141E1,-1.338809047E0,1.462917344E1
9.731743458E0,-6.604922415E0,-1.273753248E1,-1.222453695E0,1.440014329E1
9.741679458E0,-5.545459564E0,-1.297898272E1,-1.462244501E0,1.418958327E1
9.751615458E0,-3.943127470E0,-1.301529159E1,-1.940900352E0,1.373729099E1
9.761552458E0,-2.292417853E0,-1.265584804E1,-2.358719139E0,1.307628484E1
9.771488458E0,-1.036536503E0,-1.225206038E1,-2.570897638E0,1.256172385E1
9.781424458E0,3.312915444E-2,-1.212466242E1,-2.561753470E0,1.239238141E1
9.791361458E0,1.357596005E0,-1.204093146E1,-2.149476820E0,1.230639459E1
9.801297458E0,2.731953639E0,-1.175353730E1,-9.740718681E-1,1.210611522E1
9.811233458E0,4.321614524E0,-1.104113359E1,1.207309407E0,1.191807783E1
9.821170458E0,6.340704866E0,-1.007689148E1,2.999300910E0,1.227778832E1
9.831106458E0,8.218969697E0,-8.901671301E0,3.847608817E0,1.271201433E1
9.841042458E0,9.308043433E0,-7.547642097E0,3.614901913E0,1.251695209E1
9.850979458E0,9.461875491E0,-6.766705517E0,2.523287270E0,1.190304037E1
9.860915458E0,9.233760406E0,-6.133029308E0,1.196254368E0,1.114932304E1
9.870851458E0,9.634936702E0,-5.600618103E0,1.796314350E-1,1.114590489E1
9.880788458E0,1.029221403E1,-4.603359394E0,6.058843929E-1,1.129104438E1
9.890724458E0,1.069979653E1,-3.449529206E0,2.075503987E0,1.143208705E1
9.900660458E0,1.083719441E1,-2.573125720E0,3.597248877E0,1.170495442E1
9.910597458E0,1.128665116E1,-1.717785366E0,4.843734336E0,1.240165486E1
9.920533458E0,1.204809313E1,-1.174590361E0,5.394497319E0,1.325280392E1
9.930468708E0,1.315049325E1,-8.893738530E-1,5.581411754E0,1.431358152E1
9.940405708E0,1.516459475E1,-4.059432390E-1,5.480838475E0,1.612976485E1
9.950341708E0,1.704190649E1,7.554690331E-1,5.075038201E0,1.779756508E1
9.960277708E0,1.740611084E1,2.271176966E0,5.271920384E0,1.832823188E1
9.970214708E0,1.640083881E1,3.434874330E0,6.430031025E0,1.794801310E1
9.980150708E0,1.450256364E1,3.761851214E0,7.548645480E0,1.677670782E1
9.990086708E0,1.243187045E1,3.529650094E0,7.849723291E0,1.512044934E1
1.000002371E1,1.061703387E1,3.152015565E0,7.593446846E0,1.342821825E1
1.000995971E1,9.717330403E0,2.454141898E0,6.852115211E0,1.214087334E1
1.001989571E1,9.432035396E0,2.358618275E0,6.381203266E0,1.162953683E1
1.002983271E1,9.405790168E0,2.807690869E0,6.537930865E0,1.179392033E1
1.003976871E1,9.892066841E0,2.873209797E0,6.676653133E0,1.227542333E1
1.004970471E1,1.080865298E1,3.191539234E0,6.584601002E0,1.305258106E1
1.005964171E1,1.148550093E1,3.710078797E0,6.755312802E0,1.383169069E1
1.006957771E1,1.178739151E1,3.839195843E0,6.909677541E0,1.419245106E1
1.007951371E1,1.166137583E1,3.715364095E0,6.974797981E0,1.408685286E1
1.008945071E1,1.118077914E1,3.193279658E0,6.462054471E0,1.330281944E1
1.009938671E1,1.059949807E1,2.359846775E0,5.587556593E0,1.221224897E1
1.010932271E1,1.022669832E1,1.633220741E0,4.752758970E0,1.139480084E1
1.011925971E1,1.013371472E1,9.107706423E-1,3.994403166E0,1.093055048E1
1.012919571E1,1.022423313E1,2.245419981E-1,3.387615378E0,1.077317503E1
1.013913171E1,1.051567707E1,-4.451975711E-1,3.116899526E0,1.097691795E1
1.014906871E1,1.086330573E1,-1.218855611E0,3.188655680E0,1.138703410E1
1.015900471E1,1.086841269E1,-1.878295529E0,3.738038428E0,1.164574256E1
1.016894071E1,1.064953621E1,-2.720698626E0,4.483727700E0,1.187091557E1
1.017887771E1,1.067145157E1,-3.833775767E0,5.187385433E0,1.246942993E1
1.018881371E1,1.090095011E1,-4.811545706E0,5.939164873E0,1.331372843E1
1.019874971E1,1.084417130E1,-6.000387560E0,6.152027496E0,1.383647876E1
1.020868671E1,1.048543059E1,-7.368238996E0,5.690055360E0,1.402183763E1
1.021862271E1,9.863463432E0,-8.479849656E0,4.716255679E0,1.383614212E1
1.022855871E1,9.035248604E0,-9.115062513E0,3.553716649E0,1.331724386E1
1.023849571E1,8.555451230E0,-9.921756663E0,2.357197109E0,1.331140035E1
1.024843171E1,8.003359467E0,-1.068879792E1,1.542566533E0,1.344186279E1
1.025836771E1,7.353541435E0,-1.083925847E1,1.154391228E0,1.314901955E1
1.026830471E1,6.575340766E0,-1.093949261E1,8.808500013E-1,1.279388532E1
1.027824071E1,5.383040870E0,-1.119104685E1,5.947173804E-1,1.243263236E1
1.028817671E1,4.041127682E0,-1.158881656E1,4.501405880E-1,1.228144978E1
1.029811371E1,2.781367289E0,-1.199031679E1,3.263494778E-1,1.231300957E1
1.030804971E1,1.663355098E0,-1.244775149E1,2.029305428E-2,1.255841069E1
1.031798571E1,5.727458829E-1,-1.317017732E1,-7.216879141E-1,1.320236501E1
1.032792271E1,-3.955068362E-1,-1.379698714E1,-1.608087800E0,1.389601476E1
1.033785871E1,-1.348170586E0,-1.391154345E1,-2.279942819E0,1.416145277E1
1.034779471E1,-2.274244415E0,-1.324111691E1,-2.536282999E0,1.367231129E1
1.035773171E1,-3.018600815E0,-1.243399416E1,-2.619967765E0,1.306064289E1
1.036766771E1,-3.676890585E0,-1.217512623E1,-2.735709305E0,1.300912481E1
1.037760371E1,-4.574648395E0,-1.224828191E1,-3.007270373E0,1.341609082E1
1.038754071E1,-5.385261058E0,-1.233109252E1,-3.268982974E0,1.384713433E1
1.039747671E1,-5.965076224E0,-1.208758990E1,-3.253669116E0,1.386644607E1
1.040741271E1,-6.601042203E0,-1.165970820E1,-2.943276690E0,1.371806951E1
1.041734971E1,-7.233660066E0,-1.115838196E1,-2.490616245E0,1.352917201E1
1.042728571E1,-7.631038011E0,-1.058719787E1,-1.960159180E0,1.319711044E1
1.043722171E1,-8.174779365E0,-1.009288829E1,-1.439029008E0,1.306767830E1
1.044715871E1,-9.089513104E0,-9.840640579E0,-1.234296353E0,1.345291578E1
1.045709471E1,-9.999659117E0,-9.898622739E0,-9.458613183E-1,1.410214765E1
1.046703071E1,-1.088747344E1,-9.890932481E0,-5.836030660E-1,1.472101273E1
1.047696771E1,-1.139999242E1,-9.844776900E0,-5.176621147E-1,1.507141113E1
1.048690371E1,-1.156265378E1,-9.737078789E0,-7.229731321E-1,1.513368282E1
1.049683971E1,-1.124659189E1,-9.408069413E0,-1.065875566E0,1.470148598E1
1.050677671E1,-1.056243374E1,-9.023981604E0,-1.290966398E0,1.395219857E1
1.051671271E1,-9.841390193E0,-8.671345968E0,-1.627339173E0,1.321716439E1
1.052664871E1,-9.193384212E0,-8.321694751E0,-2.027543662E0,1.256502488E1
1.053658571E1,-8.723940504E0,-8.226489801E0,-2.386080893E0,1.222602365E1
1.054652171E1,-8.492993612E0,-8.186774928E0,-2.498514079E0,1.205805941E1
1.055645771E1,-8.312797628E0,-8.156862327E0,-2.532518561E0,1.191850065E1
1.056639471E1,-8.173181906E0,-8.266587667E0,-2.726758972E0,1.194037640E1
1.057633071E1,-8.159846746E0,-8.372526936E0,-2.932013783E0,1.205317431E1
1.058626671E1,-8.294050285E0,-8.485075897E0,-3.020399711E0,1.224379833E1
1.059620371E1,-8.202483473E0,-8.830371523E0,-3.005297522E0,1.242127246E1
1.060613971E1,-7.901656507E0,-9.269047183E0,-2.936637762E0,1.252897652E1
1.061607571E1,-7.452395632E0,-9.767401865E0,-2.866821422E0,1.261582359E1
1.062601271E1,-6.917546139E0,-1.020898827E1,-2.767323446E0,1.263859031E1
1.063594871E1,-6.242149462E0,-1.058409885E1,-2.451994947E0,1.252995840E1
1.064588471E1,-5.552806005E0,-1.096379598E1,-2.053264248E0,1.246011119E1
1.065582171E1,-5.156265966E0,-1.130832562E1,-1.698351999E0,1.254391114E1
1.066575771E1,-4.918867257E0,-1.150787472E1,-1.160743935E0,1.256876136E1
1.067569371E1,-4.502780560E0,-1.199213527E1,-6.399309754E-1,1.282559366E1
1.068563071E1,-3.752909067E0,-1.268895381E1,-3.085587394E-1,1.323590132E1
1.069556671E1,-2.591505273E0,-1.342830850E1,-2.594807196E-1,1.367854886E1
1.070550271E1,-1.166711311E0,-1.381374058E1,-6.039004326E-3,1.386292468E1
1.071543971E1,9.521418858E-1,-1.394277577E1,1.992625844E-1,1.397666899E1
1.072537571E1,3.533458970E0,-1.345437422E1,4.455505237E-1,1.391775963E1
1.073531171E1,6.209140760E0,-1.166956193E1,9.881920168E-1,1.325551312E1
1.074524871E1,8.666658255E0,-9.546328581E0,1.735086401E0,1.300976093E1
1.075518471E1,1.013978530E1,-7.743900967E0,2.862241590E0,1.307576671E1
1.076512071E1,1.063772015E1,-6.471494801E0,3.952357008E0,1.306378433E1
1.077505771E1,1.046620962E1,-6.302404434E0,4.760646279E0,1.311204021E1
1.078499371E1,9.478109116E0,-6.116364743E0,5.482197953E0,1.254188839E1
1.079493071E1,8.244188154E0,-5.388751261E0,5.939339705E0,1.150134925E1
1.080486671E1,7.507288123E0,-4.512851220E0,5.950120801E0,1.058910471E1
1.081480271E1,7.742935007E0,-3.072371810E0,5.550478814E0,1.001001129E1
1.082473971E1,8.962729096E0,-1.780224274E0,4.448079858E0,1.016292899E1
1.083467571E1,1.030831726E1,-1.456952186E0,3.399112174E0,1.095162444E1
1.084461171E1,1.145071468E1,-6.407962903E-1,3.538735205E0,1.200217203E1
1.085454871E1,1.173460051E1,7.396512915E-1,4.619771359E0,1.263290230E1
1.086448471E1,1.174658613E1,1.114778096E0,5.356826048E0,1.295841816E1
1.087442071E1,1.140116771E1,1.075248141E0,5.632028176E0,1.276176027E1
1.088435771E1,1.088356750E1,1.331369050E0,5.984073243E0,1.249134571E1
1.089429371E1,1.044585781E1,1.487965379E0,6.401036437E0,1.234112044E1
1.090422971E1,1.040166338E1,1.468694272E0,6.591125910E0,1.240139527E1
1.091416671E1,1.071944903E1,1.558219237E0,6.423240069E0,1.259335728E1
1.092410271E1,1.111997277E1,2.327659022E0,5.997507806E0,1.284686308E1
1.093403833E1,1.199778719E1,2.944448765E0,5.244617980E0,1.342097961E1
1.094397533E1,1.307838071E1,3.173836204E0,4.452346863E0,1.417535435E1
1.095391133E1,1.401455619E1,3.808425748E0,4.266361552E0,1.513650332E1
1.096384733E1,1.494195032E1,4.328512484E0,4.150721460E0,1.610050895E1
1.097378433E1,1.589270291E1,4.435517992E0,3.893802406E0,1.695327469E1
1.098372033E1,1.643709389E1,4.604121286E0,3.739617761E0,1.747457379E1
1.099365633E1,1.630686704E1,4.662793710E0,3.667120473E0,1.735232925E1
1.100359333E1,1.566144085E1,4.179705231E0,3.469745077E0,1.657678486E1
1.101352933E1,1.477386977E1,3.507650530E0,3.203484219E0,1.551879993E1
1.102346533E1,1.404719067E1,2.724818282E0,2.926636099E0,1.460525245E1
1.103340233E1,1.354506570E1,1.811380578E0,2.572615550E0,1.390569147E1
1.104333833E1,1.335409096E1,9.956472167E-1,2.335917630E0,1.359336493E1
1.105327433E1,1.351746918E1,-9.259007514E-2,2.219351631E0,1.369876154E1
1.106321133E1,1.368295942E1,-1.328908980E0,2.302617444E0,1.393884589E1
1.107314733E1,1.380258527E1,-2.340909690E0,2.967431538E0,1.431072563E1
1.108308333E1,1.372177792E1,-3.292320381E0,3.829938824E0,1.462173020E1
1.109302033E1,1.311046088E1,-3.988349251E0,4.603136030E0,1.445613971E1
1.110295633E1,1.252997503E1,-5.157815478E0,5.027312057E0,1.445258459E1
1.111289233E1,1.234010659E1,-6.723686382E0,5.058297622E0,1.493561395E1
1.112282933E1,1.172043972E1,-7.913688322E0,4.801982585E0,1.493499939E1
1.113276533E1,1.068521358E1,-8.859238057E0,4.455181886E0,1.457767244E1
1.114270133E1,9.526045175E0,-1.001141670E1,3.908796128E0,1.436150021E1
1.115263833E1,8.347310818E0,-1.076469478E1,3.160476486E0,1.398373567E1
1.116257433E1,7.554889137E0,-1.152155487E1,2.123769244E0,1.394033616E1
1.117251033E1,6.323797642E0,-1.229069527E1,1.297718763E0,1.388292768E1
1.118244733E1,5.018884465E0,-1.275931920E1,8.687255073E-1,1.373841737E1
1.119238333E1,3.916513576E0,-1.309112296E1,5.122248620E-1,1.367402477E1
1.120231933E1,3.181225038E0,-1.361896515E1,6.663486958E-3,1.398558004E1
1.121225633E1,2.291883418E0,-1.366852615E1,-2.492951623E-1,1.386158306E1
1.122219233E1,1.557212346E0,-1.339335151E1,-4.856697321E-1,1.349231818E1
1.123212833E1,8.286440134E-1,-1.363491402E1,-9.451006687E-1,1.369272604E1
1.124206533E1,3.072858006E-2,-1.390820820E1,-1.326815677E0,1.397138645E1
1.125200133E1,-4.582153004E-1,-1.427269322E1,-1.758322651E0,1.438789184E1
1.126193733E1,-9.605262083E-1,-1.455896588E1,-1.945936997E0,1.471980873E1
1.127187433E1,-1.808934103E0,-1.404089790E1,-1.908266895E0,1.428497598E1
1.128181033E1,-2.741110086E0,-1.344699386E1,-1.867449529E0,1.385000708E1
1.129174633E1,-3.659848291E0,-1.303165678E1,-1.867128224E0,1.366399414E1
1.130168333E1,-4.574858018E0,-1.274522507E1,-2.096777765E0,1.370279406E1
1.131161933E1,-5.494687021E0,-1.240805825E1,-2.312660914E0,1.376589610E1
1.132155533E1,-6.194371278E0,-1.190320731E1,-2.306924796E0,1.361537667E1
1.133149233E1,-6.563589032E0,-1.135639558E1,-2.289775351E0,1.331508516E1
1.134142833E1,-6.896720111E0,-1.080419974E1,-2.389186203E0,1.303854635E1
1.135136533E1,-7.372993952E0,-1.022369635E1,-2.522199980E0,1.285482399E1
1.136130133E1,-7.903065101E0,-9.811527293E0,-2.674128184E0,1.287926502E1
1.137123733E1,-8.621518335E0,-9.543726570E0,-2.695140738E0,1.314066508E1
1.138117433E1,-9.433815873E0,-9.185200449E0,-2.545122235E0,1.341053453E1
1.139111033E1,-9.716062142E0,-8.734592376E0,-2.151239609E0,1.324095160E1
1.140104633E1,-9.756595041E0,-8.151350741E0,-1.487559144E0,1.280033194E1
1.141098333E1,-9.762240527E0,-7.569972614E0,-9.981203697E-1,1.239363021E1
1.142091933E1,-9.575776913E0,-7.129990101E0,-8.449996988E-1,1.196855408E1
1.143085533E1,-9.489390149E0,-6.900457651E0,-1.031417851E0,1.177831329E1
1.144079233E1,-9.616396936E0,-6.946425537E0,-1.519901848E0,1.195985031E1
1.145072833E1,-9.831507229E0,-7.257091028E0,-1.838571593E0,1.235735611E1
1.146066433E1,-1.004905990E1,-7.695462633E0,-2.017462039E0,1.281693814E1
1.147060133E1,-1.019265115E1,-8.120711916E0,-2.144848748E0,1.320744016E1
1.148053733E1,-1.015554121E1,-8.321610551E0,-2.160095948E0,1.330602247E1
1.149047333E1,-9.847754302E0,-8.699974521E0,-2.141601936E0,1.331368771E1
1.150041033E1,-9.563259194E0,-9.200623650E0,-2.023532034E0,1.342393697E1
1.151034633E1,-9.343478145E0,-9.691505590E0,-1.748531634E0,1.357509585E1
1.152028233E1,-9.041886363E0,-1.038881120E1,-1.419095850E0,1.384546641E1
1.153021933E1,-8.883722688E0,-1.106183274E1,-9.981840312E-1,1.422255405E1
1.154015533E1,-8.615600953E0,-1.168404548E1,-6.450391030E-1,1.453139959E1
1.155009133E1,-8.113729756E0,-1.216360019E1,-6.237869592E-1,1.463471525E1
1.156002833E1,-7.478029826E0,-1.244577864E1,-6.378802107E-1,1.453358961E1
1.156996433E1,-6.910186248E0,-1.283378700E1,-6.343598945E-1,1.458969415E1
1.157990033E1,-6.297378752E0,-1.337157531E1,-7.828908665E-1,1.480097711E1
1.158983733E1,-5.466094136E0,-1.385008220E1,-8.223641038E-1,1.491238562E1
1.159977333E1,-4.331683429E0,-1.412095330E1,-7.070770378E-1,1.478731758E1
1.160970933E1,-2.989625230E0,-1.415294692E1,-5.258671470E-1,1.447481612E1
1.161964633E1,-1.431454525E0,-1.413179403E1,-4.706988135E-1,1.421190424E1
1.162958233E1,1.583408457E-1,-1.406588773E1,-4.263526529E-1,1.407323864E1
1.163951833E1,1.402707274E0,-1.375759796E1,1.474293566E-1,1.382970805E1
1.164945533E1,2.878580173E0,-1.322292271E1,1.335257595E0,1.359833893E1
1.165939133E1,5.055949380E0,-1.251793445E1,2.626081613E0,1.375345817E1
1.166932733E1,7.661214906E0,-1.144883772E1,3.185504908E0,1.413921994E1
1.167926433E1,1.018335524E1,-9.911319383E0,2.984612997E0,1.452043011E1
1.168920033E1,1.166806621E1,-8.081833194E0,2.779517230E0,1.446324697E1
1.169913633E1,1.202625612E1,-6.406198944E0,3.046459289E0,1.396249030E1
1.170907333E1,1.168300351E1,-4.936715882E0,3.873323117E0,1.326146171E1
1.171900933E1,1.133784471E1,-4.703918347E0,4.235973279E0,1.298526242E1
1.172894633E1,1.079494243E1,-4.779118510E0,4.405022131E0,1.260059426E1
1.173888233E1,1.040822513E1,-3.662262898E0,4.626574302E0,1.196446863E1
1.174881833E1,1.027647917E1,-2.946895824E0,4.282450165E0,1.151649246E1
1.175875533E1,1.016020612E1,-2.810535539E0,3.743727476E0,1.118679551E1
1.176869133E1,1.027870930E1,-2.081449436E0,3.556770942E0,1.107406502E1
1.177862733E1,1.116387601E1,-1.014223163E0,3.623585906E0,1.178096562E1
1.178856433E1,1.254964507E1,-1.455735965E-1,3.654139946E0,1.307163042E1
1.179850033E1,1.427118464E1,4.019867206E-1,3.737428563E0,1.475793605E1
1.180843633E1,1.618595013E1,1.098675741E0,3.733271193E0,1.664720348E1
1.181837333E1,1.747969688E1,1.832411259E0,3.529953857E0,1.792646391E1
1.182830933E1,1.766527347E1,2.737324891E0,3.132209876E0,1.814843169E1
1.183824533E1,1.723508914E1,3.597089540E0,2.955431297E0,1.785278479E1
1.184818233E1,1.632274808E1,4.141795393E0,3.347103530E0,1.716944017E1
1.185811833E1,1.558244614E1,4.414374168E0,3.911276810E0,1.666125485E1
1.186805433E1,1.514475866E1,4.602740466E0,4.184713956E0,1.637256136E1
1.187799133E1,1.488118605E1,4.527977967E0,3.994887023E0,1.605962033E1
1.188792733E1,1.469190350E1,4.616388452E0,3.599894450E0,1.581525563E1
1.189786333E1,1.452468015E1,4.816060049E0,2.909365471E0,1.557643012E1
1.190780033E1,1.440482743E1,4.711857111E0,2.085598328E0,1.529870488E1
1.191773633E1,1.413199401E1,4.658875490E0,1.496081168E0,1.495515411E1
1.192767233E1,1.372286082E1,4.426135257E0,1.082382475E0,1.445956895E1
1.193760946E1,1.315657085E1,3.807145500E0,9.086254451E-1,1.372644577E1
1.194754546E1,1.249610328E1,2.822516777E0,1.069836981E0,1.285549491E1
1.195748146E1,1.214969552E1,1.511658736E0,1.151413241E0,1.229739670E1
1.196741846E1,1.224254696E1,3.533364245E-1,1.341064172E0,1.232084639E1
1.197735446E1,1.283114172E1,-5.072456655E-1,1.833959309E0,1.297146494E1
1.198729046E1,1.358097813E1,-1.082973336E0,2.464494978E0,1.384519894E1
1.199722746E1,1.369139111E1,-1.726545665E0,3.063530527E0,1.413578330E1
1.200716346E1,1.294836085E1,-2.659060202E0,3.505699314E0,1.367554670E1
1.201709946E1,1.200508218E1,-3.917706993E0,3.515662677E0,1.310840609E1
1.202703646E1,1.108671147E1,-5.306530053E0,3.062732675E0,1.266707401E1
1.203697246E1,1.013581621E1,-6.490174316E0,2.459438598E0,1.228437915E1
1.204690846E1,9.113797175E0,-7.569509515E0,2.096840477E0,1.203143854E1
1.205684546E1,8.190013701E0,-8.491399076E0,1.780014944E0,1.193099476E1
1.206678146E1,7.412914063E0,-9.225058579E0,1.434016483E0,1.192096489E1
1.207671746E1,6.617702090E0,-9.709921981E0,1.224787027E0,1.181425703E1
1.208665446E1,5.918347616E0,-1.011852015E1,9.528108072E-1,1.176091565E1
1.209659046E1,4.941563809E0,-1.047275617E1,7.229871655E-1,1.160260251E1
1.210652646E1,3.921766130E0,-1.097424145E1,5.558655560E-1,1.166718524E1
1.211646346E1,2.940036748E0,-1.153461287E1,3.745222025E-1,1.190929792E1
1.212639946E1,1.964941617E0,-1.202614619E1,2.991989551E-1,1.218928660E1
1.213633546E1,9.045122212E-1,-1.220559724E1,2.659740525E-1,1.224195607E1
1.214627246E1,-1.008761644E-2,-1.232435652E1,2.503413753E-1,1.232690295E1
1.215620846E1,-7.448501971E-1,-1.273315876E1,8.428059697E-2,1.275520431E1
1.216614446E1,-1.639965943E0,-1.290481196E1,-2.133169520E-1,1.301034835E1
1.217608146E1,-2.728342398E0,-1.279558363E1,-4.663353288E-1,1.309153472E1
1.218601746E1,-3.745132855E0,-1.276364146E1,-7.200243813E-1,1.332122362E1
1.219595346E1,-4.650567182E0,-1.285315415E1,-1.004042941E0,1.370545326E1
1.220589046E1,-5.781585335E0,-1.281230901E1,-1.239281251E0,1.411091100E1
1.221582646E1,-6.805463201E0,-1.269189847E1,-1.420034474E0,1.447118219E1
1.222576346E1,-7.516227931E0,-1.237234813E1,-1.430654626E0,1.454700840E1
1.223569946E1,-7.993546670E0,-1.198888773E1,-1.278404825E0,1.446597858E1
1.224563546E1,-8.370999058E0,-1.160769605E1,-1.125759167E0,1.435547166E1
1.225557246E1,-8.655511708E0,-1.116118161E1,-8.309454775E-1,1.414850975E1
1.226550846E1,-8.817787145E0,-1.071630673E1,-4.221644385E-1,1.388419328E1
1.227544446E1,-8.916495747E0,-1.029533644E1,-7.656154141E-2,1.361997469E1
1.228538146E1,-9.132061538E0,-9.960549431E0,7.982341066E-2,1.351345495E1
1.229531746E1,-9.412263036E0,-9.596669599E0,-7.524094775E-2,1.344218822E1
1.230525346E1,-9.588973494E0,-9.273800969E0,-2.879965670E-1,1.334296590E1
1.231519046E1,-9.618399607E0,-9.086321109E0,-3.466230901E-1,1.323612443E1
1.232512646E1,-9.483305537E0,-9.024543521E0,-4.143081196E-1,1.309759981E1
1.233506246E1,-9.313283123E0,-8.905536311E0,-4.622941719E-1,1.289416672E1
1.234499946E1,-9.193252650E0,-8.861833051E0,-4.894289070E-1,1.277840052E1
1.235493546E1,-9.095715246E0,-8.900648038E0,-5.393250985E-1,1.273752107E1
1.236487146E1,-9.095870782E0,-8.855529753E0,-5.769807288E-1,1.270779994E1
1.237480846E1,-8.948443764E0,-8.973713676E0,-6.575324102E-1,1.268993821E1
1.238474446E1,-8.916392836E0,-9.053903561E0,-7.338157703E-1,1.272846088E1
1.239468046E1,-8.813343261E0,-9.024123691E0,-7.624041232E-1,1.263689392E1
1.240461746E1,-8.535063159E0,-9.068650823E0,-8.682910591E-1,1.248365572E1
1.241455346E1,-8.091524370E0,-9.257263289E0,-1.078679287E0,1.234233524E1
1.242448946E1,-7.569894261E0,-9.747796150E0,-1.346229018E0,1.241511826E1
1.243442646E1,-7.082201393E0,-1.043607190E1,-1.647626088E0,1.271942786E1
1.244436246E1,-6.679868517E0,-1.076848728E1,-1.944207391E0,1.282033167E1
1.245429846E1,-6.178405455E0,-1.095654076E1,-2.142316904E0,1.275962386E1
1.246423546E1,-5.512197677E0,-1.126947906E1,-2.282626106E0,1.275130830E1
1.247417146E1,-4.792280885E0,-1.141787905E1,-2.281754871E0,1.259127966E1
1.248410746E1,-3.975024909E0,-1.139995734E1,-2.173701396E0,1.226722577E1
1.249404446E1,-3.012452760E0,-1.173682011E1,-2.007340070E0,1.228239521E1
1.250398046E1,-2.118333380E0,-1.237196923E1,-1.780750816E0,1.267769823E1
1.251391646E1,-9.110125709E-1,-1.264022545E1,-1.503833115E0,1.276192609E1
1.252385346E1,9.753506541E-1,-1.266440486E1,-9.306486905E-1,1.273595565E1
1.253378946E1,2.943739790E0,-1.205067643E1,7.947301626E-2,1.240526994E1
1.254372646E1,5.049875293E0,-1.064587000E1,1.383650906E0,1.186382225E1
1.255366246E1,7.245649781E0,-8.745781024E0,2.380241571E0,1.160403707E1
1.256359846E1,9.029914189E0,-7.784581216E0,2.364760190E0,1.215447020E1
1.257353546E1,1.003552711E1,-6.773172537E0,2.104280474E0,1.228884319E1
1.258347146E1,1.052280365E1,-6.121993858E0,1.510377611E0,1.226741399E1
1.259340746E1,1.062128246E1,-6.229489655E0,1.344213775E0,1.238648833E1
1.260334446E1,1.103259783E1,-5.137569494E0,2.565540712E0,1.243763781E1
1.261328046E1,1.193163764E1,-3.786191126E0,4.159313066E0,1.319087204E1
1.262321646E1,1.259415173E1,-2.466235987E0,5.539736894E0,1.397797062E1
1.263315346E1,1.278048612E1,-4.657935843E-1,6.447503675E0,1.432229356E1
1.264308946E1,1.343904867E1,1.929657179E-1,5.654228885E0,1.458134319E1
1.265302546E1,1.392137847E1,2.774679609E-1,3.898341307E0,1.445955850E1
1.266296246E1,1.390544364E1,1.399588077E0,2.180648034E0,1.414480242E1
1.267289846E1,1.364583077E1,2.711193684E0,1.344199157E0,1.397734381E1
1.268283446E1,1.327375139E1,3.454431804E0,1.541094496E0,1.380219357E1
1.269277146E1,1.289110843E1,3.566982812E0,2.386350742E0,1.358671089E1
1.270270746E1,1.242509002E1,3.803423163E0,3.410897237E0,1.343440023E1
1.271264346E1,1.218844618E1,4.302128677E0,4.029508095E0,1.353896108E1
1.272258046E1,1.219560318E1,4.822416265E0,4.073820049E0,1.373260519E1
1.273251646E1,1.237633593E1,5.069057668E0,3.229920650E0,1.375868541E1
1.274245246E1,1.271985634E1,5.143058276E0,1.965872494E0,1.386039135E1
1.275238946E1,1.306582674E1,5.281637871E0,1.204650093E0,1.414435254E1
1.276232546E1,1.330578010E1,5.406225665E0,1.132481711E0,1.440671978E1
1.277226146E1,1.331928132E1,5.629148422E0,1.464925742E0,1.453397999E1
1.278219846E1,1.325066073E1,5.275770190E0,1.945265737E0,1.439436764E1
1.279213446E1,1.323277761E1,4.690242879E0,2.142779126E0,1.420198169E1
1.280207046E1,1.311307926E1,4.228751968E0,1.919486240E0,1.391113289E1
1.281200746E1,1.287102441E1,3.670881110E0,1.551040025E0,1.347383994E1
1.282194346E1,1.245581831E1,3.281260373E0,1.245665387E0,1.294085629E1
1.283187946E1,1.185969701E1,2.539403366E0,9.262489530E-1,1.216383655E1
1.284181646E1,1.128097703E1,1.420506198E0,8.451675139E-1,1.140142924E1
1.285175246E1,1.093668361E1,3.879893999E-1,9.976440409E-1,1.098894344E1
1.286168846E1,1.080129484E1,-6.001611382E-1,1.214308231E0,1.088589492E1
1.287162546E1,1.093315657E1,-1.343481996E0,1.575354502E0,1.112747044E1
1.288156146E1,1.117978277E1,-2.112361911E0,1.948769388E0,1.154328020E1
1.289149746E1,1.141129977E1,-3.002490274E0,2.205887833E0,1.200410977E1
1.290143446E1,1.149141013E1,-4.023303322E0,2.346767138E0,1.239946742E1
1.291137046E1,1.138077730E1,-4.928209353E0,2.588375258E0,1.266921568E1
1.292130746E1,1.115341300E1,-6.061666964E0,2.749503764E0,1.298854106E1
1.293124346E1,1.071091326E1,-6.813321859E0,3.187973894E0,1.308847566E1
1.294117933E1,9.971600668E0,-7.048051314E0,3.522001351E0,1.270875056E1
1.295111633E1,9.032559469E0,-7.755094877E0,3.306479414E0,1.235562355E1
1.296105233E1,7.877643746E0,-8.529766166E0,2.730592115E0,1.192771207E1
1.297098833E1,6.830350705E0,-9.522285415E0,2.011725628E0,1.189010724E1
1.298092533E1,5.797001519E0,-1.010327996E1,1.706066377E0,1.177251694E1
1.299086133E1,4.951192419E0,-1.036573107E1,1.457438382E0,1.157958607E1
1.300079733E1,4.039314460E0,-1.049615322E1,1.353611128E0,1.132773396E1
1.301073433E1,2.998842196E0,-1.033595471E1,1.370098376E0,1.084906373E1
1.302067033E1,1.987518302E0,-1.038853521E1,1.108027778E0,1.063483044E1
1.303060633E1,1.057919771E0,-1.084929580E1,6.431046979E-1,1.091970683E1
1.304054333E1,2.737075800E-1,-1.148883385E1,3.074115157E-2,1.149213488E1
1.305047933E1,-6.885651916E-1,-1.195735720E1,-4.907057928E-1,1.198721425E1
1.306041533E1,-1.669343231E0,-1.174127452E1,-5.739224888E-1,1.187323129E1
1.307035233E1,-2.503995259E0,-1.142835493E1,-5.730610478E-1,1.171348315E1
1.308028833E1,-3.072421511E0,-1.123339005E1,-7.128382994E-1,1.166777461E1
1.309022433E1,-3.587651257E0,-1.102618109E1,-9.970164885E-1,1.163795313E1
1.310016133E1,-4.286249101E0,-1.088518017E1,-1.232193256E0,1.176339147E1
1.311009733E1,-4.876362677E0,-1.077457774E1,-1.379665151E0,1.190688517E1
1.312003333E1,-5.412345945E0,-1.070513387E1,-1.474991139E0,1.208590000E1
1.312997033E1,-6.024195668E0,-1.045956485E1,-1.470268927E0,1.215956911E1
1.313990633E1,-6.513119375E0,-9.995031631E0,-1.399588954E0,1.201167060E1
1.314984233E1,-6.848178865E0,-9.597621526E0,-1.272818980E0,1.185883472E1
1.315977933E1,-7.128787329E0,-9.452491879E0,-1.207038461E0,1.190067869E1
1.316971533E1,-7.372378240E0,-9.430684689E0,-1.099097618E0,1.202072336E1
1.317965133E1,-7.630977200E0,-9.519253049E0,-1.034723282E0,1.224412691E1
1.318958833E1,-7.766842518E0,-9.458044395E0,-1.096528936E0,1.228742537E1
1.319952433E1,-7.844947870E0,-9.129433799E0,-1.081222680E0,1.208547935E1
1.320946133E1,-8.033812351E0,-8.751069245E0,-9.461601841E-1,1.191715456E1
1.321939733E1,-8.409192486E0,-8.410833800E0,-6.945071322E-1,1.191381482E1
1.322933333E1,-8.753852520E0,-8.267057199E0,-4.885413362E-1,1.205042909E1
1.323927033E1,-8.870017984E0,-8.270486006E0,-6.728034371E-1,1.214622667E1
1.324920633E1,-8.952435073E0,-8.266511069E0,-8.110642865E-1,1.221225304E1
1.325914233E1,-8.958968167E0,-8.421931815E0,-8.050534219E-1,1.232234382E1
1.326907933E1,-8.929543809E0,-8.610205727E0,-7.727896553E-1,1.242857993E1
1.327901533E1,-8.906091796E0,-8.507174864E0,-8.161812580E-1,1.234328348E1
1.328895133E1,-8.776889380E0,-8.380102589E0,-7.798297030E-1,1.216010037E1
1.329888833E1,-8.491894920E0,-8.377740898E0,-6.820807026E-1,1.194839135E1
1.330882433E1,-8.376361540E0,-8.267568246E0,-7.197151367E-1,1.179127250E1
1.331876033E1,-8.214871384E0,-8.270438059E0,-9.697501179E-1,1.169720791E1
1.332869733E1,-7.988382409E0,-8.651502272E0,-1.350244301E0,1.185267500E1
1.333863333E1,-7.900881166E0,-8.995251895E0,-1.583334782E0,1.207664808E1
1.334856933E1,-7.644447430E0,-9.246330750E0,-1.587930255E0,1.210180695E1
1.335850633E1,-7.152398386E0,-9.617211453E0,-1.550355316E0,1.208516282E1
1.336844233E1,-6.490715768E0,-1.014415902E1,-1.601104470E0,1.214894600E1
1.337837833E1,-6.010826594E0,-1.051330661E1,-1.564782152E0,1.221098667E1
1.338831533E1,-5.763056678E0,-1.058108285E1,-1.384681039E0,1.212804511E1
1.339825133E1,-5.422322465E0,-1.071132257E1,-1.403872770E0,1.208738478E1
1.340818733E1,-4.777433050E0,-1.111678370E1,-1.577628338E0,1.220228084E1
1.341812433E1,-4.195319343E0,-1.137239941E1,-1.551217635E0,1.222041116E1
1.342806033E1,-3.190130348E0,-1.140343058E1,-1.291720250E0,1.191149453E1
1.343799633E1,-1.595818003E0,-1.146632791E1,-1.039531593E0,1.162342191E1
1.344793333E1,3.602843785E-1,-1.149601657E1,-9.771037956E-1,1.154309030E1
1.345786933E1,2.348272796E0,-1.164829911E1,-1.040300502E0,1.192809635E1
1.346780633E1,4.154820358E0,-1.128795392E1,-8.321742699E-1,1.205707054E1
1.347774233E1,5.823845501E0,-1.021866892E1,-3.618373990E-2,1.176178899E1
1.348767833E1,7.718494815E0,-8.956377851E0,1.557431617E0,1.192549620E1
1.349761533E1,1.006887963E1,-7.495089662E0,3.736570484E0,1.309658982E1
1.350755133E1,1.214484817E1,-5.758623903E0,5.800460147E0,1.463914015E1
1.351748733E1,1.377246509E1,-3.826690988E0,6.845765719E0,1.584893898E1
1.352742433E1,1.467414667E1,-2.942641975E0,6.380470026E0,1.626960725E1
1.353736033E1,1.432460480E1,-3.670385558E0,5.045489881E0,1.562443602E1
1.354729633E1,1.308047635E1,-3.433668049E0,3.828735467E0,1.405518243E1
1.355723333E1,1.150605741E1,-2.913084300E0,3.348819687E0,1.233247787E1
1.356716933E1,1.077371469E1,-2.491339253E0,3.631566186E0,1.163907095E1
1.357710533E1,1.095583909E1,-1.279648820E0,4.331011584E0,1.185012965E1
1.358704233E1,1.140403519E1,3.420077366E-1,4.879823644E0,1.240893495E1
1.359697833E1,1.235620514E1,1.254074268E0,5.114207529E0,1.343144171E1
1.360691433E1,1.346236152E1,1.715562840E0,5.231204467E0,1.454454652E1
1.361685133E1,1.427947833E1,2.193723870E0,4.680472474E0,1.518626841E1
1.362678733E1,1.418123341E1,2.397090615E0,3.925864443E0,1.490858263E1
1.363672333E1,1.327076346E1,2.445152096E0,3.749625270E0,1.400541400E1
1.364666033E1,1.200238661E1,2.397761291E0,4.055059258E0,1.289379886E1
1.365659633E1,1.069086900E1,2.319474236E0,4.603317586E0,1.186866351E1
1.366653233E1,9.453506371E0,2.380905814E0,5.054282924E0,1.098104144E1
1.367646933E1,8.600346152E0,2.431339073E0,5.153110224E0,1.031658415E1
1.368640533E1,8.137033834E0,2.550020155E0,4.806852439E0,9.788756447E0
1.369634233E1,8.128187581E0,2.482263497E0,4.227545103E0,9.492165350E0
1.370627833E1,8.308550211E0,2.280181678E0,3.633382623E0,9.350545672E0
1.371621433E1,8.270716971E0,2.396703529E0,3.304125910E0,9.223133689E0
1.372615133E1,7.918758443E0,2.211007070E0,3.062811320E0,8.773602494E0
1.373608733E1,7.285902599E0,2.087058962E0,3.161829239E0,8.212025081E0
1.374602333E1,6.160053969E0,1.884333218E0,3.016204918E0,7.112978890E0
1.375596033E1,4.694289152E0,1.361722678E0,2.309234446E0,5.405848964E0
1.376589633E1,3.321509097E0,6.291697598E-1,1.386790568E0,3.653965702E0
1.377583233E1,2.315315550E0,-8.364646643E-2,5.424233919E-1,2.379475985E0
1.378576933E1,1.558242041E0,-6.445087606E-1,-6.322243452E-2,1.687455741E0
1.379570533E1,9.757014871E-1,-8.755828294E-1,4.344305813E-2,1.311688218E0
1.380564133E1,5.372649783E-1,-9.439375113E-1,7.172837913E-1,1.301601982E0
1.381557833E1,2.311135375E-1,-1.109437395E0,1.211502153E0,1.658915992E0
1.382551433E1,-3.468509853E-2,-1.274278152E0,1.393199117E0,1.888383341E0
1.383545033E1,-2.490387619E-1,-1.420256376E0,1.448200366E0,2.043632251E0
1.384538733E1,-2.971519911E-1,-1.675905123E0,9.610390091E-1,1.954623561E0
1.385532333E1,-3.554434687E-1,-1.839581699E0,2.712260216E-1,1.893136139E0
1.386525933E1,-5.409534019E-1,-1.826536561E0,-4.559734780E-1,1.958769564E0
1.387519633E1,-8.596956521E-1,-1.890127224E0,-1.194676205E0,2.395601964E0
1.388513233E1,-1.225379057E0,-2.058460084E0,-1.903907796E0,3.060012524E0
1.389506833E1,-1.533754486E0,-2.065396344E0,-2.335405998E0,3.474533934E0
1.390500533E1,-1.644111911E0,-1.891390222E0,-2.301372864E0,3.402466460E0
1.391494133E1,-1.613325736E0,-1.737364183E0,-2.198394041E0,3.233294078E0
1.392487833E1,-1.762551357E0,-1.686075624E0,-2.281561913E0,3.339904648E0
1.393481496E1,-2.026656347E0,-1.643352358E0,-2.566384465E0,3.659818594E0
1.394475096E1,-2.091113421E0,-1.673625732E0,-3.013168459E0,4.031496322E0
1.395468796E1,-2.079431269E0,-1.713948716E0,-3.501962943E0,4.418755374E0
1.396462396E1,-2.185555894E0,-1.620368122E0,-3.915594978E0,4.768032241E0
1.397455996E1,-2.157526974E0,-1.559340440E0,-4.269349771E0,5.031283407E0
1.398449696E1,-1.903076614E0,-1.488281275E0,-4.387924873E0,5.009048457E0
1.399443296E1,-1.444500833E0,-1.270544705E0,-4.317678763E0,4.726861157E0
1.400436896E1,-1.069593445E0,-9.296207500E-1,-4.053830758E0,4.294388046E0
1.401430596E1,-9.108546960E-1,-5.804484200E-1,-3.637530053E0,3.794496216E0
1.402424196E1,-7.184494337E-1,-3.338722131E-1,-3.272891253E0,3.367411083E0
1.403417796E1,-6.027219263E-1,-2.449933657E-1,-2.814312841E0,2.888538079E0
1.404411496E1,-6.085799593E-1,-2.012746114E-1,-2.292010887E0,2.379956920E0
1.405405096E1,1.411728358E-1,-6.088050771E-1,-3.281574368E-1,7.058758353E-1
1.406398696E1,1.006689245E0,-6.671523955E-1,5.839263439E-2,1.209101011E0
1.407392396E1,-4.898446441E-1,1.874883386E-1,-3.528911591E0,3.567676648E0
1.408385996E1,-2.442455068E-2,-3.094510245E-1,-1.989587631E0,2.013657229E0
1.409379596E1,4.863523945E-1,-1.690927058E-1,-1.711675318E0,1.787446053E0
1.410373296E1,5.406781442E-1,-9.723948866E-2,-1.621601300E0,1.712127084E0
1.411366896E1,3.839685255E-1,3.302905011E-1,-1.085557805E0,1.197897906E0
1.412360596E1,2.154229729E-1,5.677567461E-1,-2.593047184E-1,6.602982031E-1
1.413354196E1,3.959206729E-1,-2.165282428E-2,4.694413698E-1,6.144894008E-1
1.414347796E1,1.994909182E-1,-1.192200494E-1,2.961146951E-1,3.764225807E-1
1.415341496E1,-6.977877125E-2,-1.457567605E-1,-1.662959826E-1,2.318802794E-1
1.416335096E1,-3.648165554E-2,-1.882630947E-1,-5.500791514E-1,5.825469739E-1
1.417328696E1,1.843233870E-1,-1.302584231E-1,-7.265323323E-1,7.607835419E-1
1.418322396E1,5.551523419E-1,1.140192434E-1,-6.652938581E-1,8.739624867E-1
1.419315996E1,9.289170375E-1,4.378015012E-1,-5.911967719E-1,1.184934867E0
1.420309596E1,1.375112071E0,6.275050575E-1,-1.189007914E-1,1.516190358E0
1.421303296E1,1.529139864E0,7.872773015E-1,2.149167502E-1,1.733281132E0
1.422296896E1,1.444994484E0,8.049993351E-1,3.436075348E-1,1.689407922E0
1.423290496E1,1.229525172E0,6.845405531E-1,1.160087585E-2,1.407289059E0
1.424284196E1,9.768016407E-1,5.679441494E-1,-1.217185646E-1,1.136449476E0
1.425277796E1,9.830539222E-1,4.281638280E-1,-9.320403278E-2,1.076292836E0
1.426271396E1,8.764547954E-1,2.802608469E-1,-7.782585561E-2,9.234587238E-1
1.427265096E1,5.840995677E-1,1.901672405E-1,-2.544708252E-2,6.148035770E-1
1.428258696E1,4.034195808E-1,1.006764820E-1,6.531515300E-2,4.208909376E-1
1.429252396E1,3.249090162E-1,-2.428202480E-2,5.585786641E-2,3.305685810E-1
1.430245996E1,3.801324597E-1,3.449769527E-2,1.454413033E-1,4.084653603E-1
1.431239596E1,3.726664424E-1,2.044017023E-1,1.214004761E-1,4.420389222E-1
1.432233296E1,2.224603893E-1,1.929481763E-1,-1.439923632E-1,3.277978404E-1
1.433226896E1,1.537978515E-2,8.137540787E-2,-4.356181508E-1,4.434204192E-1
1.434220496E1,-1.337307921E-1,5.424315780E-2,-4.421278560E-1,4.650841709E-1
1.435214196E1,-2.170834360E-1,4.503554732E-2,-3.678945297E-1,4.295344034E-1
1.436207796E1,-2.570738594E-1,-9.207815140E-2,-3.378638148E-1,4.344160593E-1
1.437201396E1,-2.530995069E-1,-2.055515572E-1,-2.793671000E-1,4.293678838E-1
1.438195096E1,-3.323623158E-1,-2.694423285E-1,-1.518135989E-1,4.539947645E-1
1.439188696E1,-4.083044909E-1,-3.497360015E-1,-2.761639953E-2,5.383219237E-1
1.440182296E1,-4.075832368E-1,-3.565895230E-1,1.260232848E-1,5.560234268E-1
1.441175996E1,-2.513232690E-1,-2.545866001E-1,1.854216403E-1,4.029378453E-1
1.442169596E1,2.069404171E-1,-2.579031408E-2,-1.338244060E0,1.354395305E0
1.443163196E1,7.411072482E-1,3.557697433E-1,-1.103305859E0,1.375898209E0
1.444156896E1,8.208996686E-1,2.674092516E-1,4.925916660E-1,9.939972451E-1
1.445150496E1,9.362184557E-1,7.710547864E-2,7.367538500E-1,1.193841064E0
1.446144196E1,6.502700222E-1,-1.614006937E-2,4.791296214E-1,8.078841487E-1
1.447137796E1,4.274074906E-1,-7.426431656E-2,1.028419983E-1,4.458349789E-1
1.448131396E1,5.240701514E-1,-2.145168006E-2,-4.002185225E-2,5.260336937E-1
1.449125096E1,6.777832183E-1,1.032346389E-1,-2.270041144E-1,7.222038145E-1
1.450118696E1,7.141210324E-1,2.367631173E-1,-4.262982738E-1,8.647287672E-1
1.451112296E1,5.089377035E-1,2.531432149E-1,-3.915488559E-1,6.902242968E-1