"Time (s)","Linear Acceleration x (m/s^2)","Linear Acceleration y (m/s^2)","Linear Acceleration z (m/s^2)","Absolute acceleration (m/s^2)"
9.242208354E-3,-1.044495806E-1,2.211574835E-1,-7.612899363E-2,2.561561459E-1
1.917820834E-2,7.011177018E-3,2.888799351E-1,-4.375266820E-1,5.243380312E-1
2.911320835E-2,-2.186681410E-1,4.042718124E-1,-6.837874317E-1,8.239033354E-1
3.904920834E-2,-3.573359200E-1,4.643367505E-1,-7.881988227E-1,9.821175906E-1
4.898420835E-2,-3.799748772E-1,4.317364767E-1,-5.965493131E-1,8.286424896E-1
5.892020834E-2,-5.254434797E-1,5.299968892E-1,-4.536427778E-1,8.733723849E-1
6.885620835E-2,-6.587471692E-1,6.219943491E-1,-5.452230388E-1,1.057399151E0
7.879120833E-2,-6.356340759E-1,7.030417281E-1,-7.343851429E-1,1.199007877E0
8.872720835E-2,-5.615550796E-1,7.124569148E-1,-9.672563535E-1,1.326093442E0
9.866220833E-2,-6.166178343E-1,5.917888024E-1,-9.656922233E-1,1.289570863E0
1.085982083E-1,-8.790063742E-1,5.242063916E-1,-5.795742613E-1,1.176159373E0
1.185332084E-1,-1.200964739E0,3.066741818E-1,-1.622742677E-1,1.250079316E0
1.284692083E-1,-1.317888733E0,2.522450826E-1,4.436142182E-1,1.413241617E0
1.384042084E-1,-1.358712677E0,7.088962528E-1,1.039764751E0,1.851957012E0
1.483402083E-1,-1.253222913E0,9.357474625E-1,1.174997401E0,1.956223371E0
1.582762083E-1,-8.260835908E-1,7.294804984E-1,7.300798380E-1,1.321957816E0
1.682112083E-1,-1.654444453E-1,3.328968975E-1,-1.177541524E-1,3.899464697E-1
1.781472084E-1,1.987108631E-1,2.496477494E-1,-7.922059196E-1,8.540493106E-1
1.880822083E-1,5.343729454E-1,2.137879452E-1,-1.408528177E0,1.521581860E0
1.980182083E-1,4.693187975E-1,3.075781614E-2,-1.913601310E0,1.970552245E0
2.079532083E-1,1.458514854E-1,-4.297112936E-1,-2.300816794E0,2.345140160E0
2.178892083E-1,2.120411992E-1,-7.195940262E-1,-2.520664501E0,2.629929003E0
2.278252083E-1,3.369118150E-1,-9.484183788E-1,-2.506880275E0,2.701380333E0
2.377602083E-1,1.095603760E0,-1.540137892E0,-1.237226978E0,2.259004852E0
2.476962083E-1,2.222739508E0,-1.336977553E0,-1.287933447E0,2.896006296E0
2.576312083E-1,2.802361132E0,-2.428012446E-1,-2.091112252E0,3.504986563E0
2.675672083E-1,2.659458982E0,-1.378618792E0,-1.852413121E0,3.522037226E0
2.775022083E-1,2.201871088E0,-2.948917499E0,-3.967984861E-1,3.701594216E0
2.874382084E-1,3.445031089E-1,-1.854693828E0,-1.469703501E-1,1.892134211E0
2.973732083E-1,-1.377673297E0,5.357014328E-2,-4.907860458E-2,1.379587686E0
3.073092084E-1,-2.352488200E0,1.588351401E0,4.321191770E-1,2.871199730E0
3.172452083E-1,-2.465513563E0,2.092069149E0,1.433669450E0,3.537077684E0
3.271802083E-1,-1.879937135E0,1.594476652E0,2.290563701E0,3.364996507E0
3.371162083E-1,-7.987571400E-1,6.561265934E-1,2.180440165E0,2.413054991E0
3.470512083E-1,-1.390383098E-1,6.071193248E-1,1.899211897E0,1.998732437E0
3.569872083E-1,-3.383122963E-1,1.248223252E0,1.101759855E0,1.698938279E0
3.669222083E-1,-4.773221008E-1,1.428820939E0,2.782356638E-1,1.531920608E0
3.768582083E-1,-2.728845844E-1,7.385014366E-1,-5.904196769E-1,9.840964196E-1
3.867932083E-1,-1.914173752E-2,7.726364583E-3,-1.335371908E0,1.335531443E0
3.967292084E-1,9.827196077E-2,-6.484269798E-2,-1.616299630E0,1.620582132E0
4.066652083E-1,-4.361281011E-1,7.958118975E-2,-1.631800599E0,1.690950644E0
4.166002084E-1,-1.468407320E0,-1.247728577E-1,-1.301901861E0,1.966401988E0
4.265362083E-1,-1.956830214E0,-2.392416058E-1,2.912217450E-1,1.992794805E0
4.364712083E-1,-2.089372559E0,2.670556413E-1,2.732220272E0,3.449902030E0
4.464072083E-1,-1.186074805E0,4.205642018E-1,3.788447274E0,3.991989534E0
4.563422083E-1,8.394109301E-2,7.922129363E-1,3.187245331E0,3.285297589E0
4.662782083E-1,7.929176171E-2,1.160300278E0,1.861911923E0,2.195290397E0
4.762132083E-1,-1.117817625E0,1.205922740E0,9.550824505E-1,1.901564720E0
4.861492083E-1,-1.687538012E0,1.265558930E0,6.408174133E-1,2.204556850E0
4.960852083E-1,-7.820482828E-1,3.200685157E0,1.001641490E0,3.443729180E0
5.060202084E-1,2.457509456E-1,3.480462439E0,3.641877458E0,5.043538811E0
5.159562083E-1,2.095977428E0,1.507533233E0,1.102504790E0,2.807364358E0
5.258912084E-1,2.621138085E0,2.029985898E0,3.708853805E0,4.974615980E0
5.358272083E-1,2.088646627E0,2.195035400E0,7.122788086E0,7.740460920E0
5.457622083E-1,1.554802562E0,1.089542025E0,9.643647299E0,9.828756079E0
5.556982083E-1,1.623390694E0,1.438439755E0,8.339143428E0,8.616601382E0
5.656342084E-1,1.437958968E0,1.082293305E0,9.748252818E0,9.912997417E0
5.755692083E-1,2.389130800E0,1.397174639E-1,9.527298233E0,9.823282474E0
5.855052083E-1,3.202229406E0,-1.846831369E-1,9.958042145E0,1.046188245E1
5.954402083E-1,4.043444056E0,-1.661179349E-1,1.016356008E1,1.093960641E1
6.053762083E-1,4.404611364E0,9.680445582E-2,1.026809426E1,1.117334919E1
6.153112083E-1,4.646143471E0,1.380074456E-1,1.048101945E1,1.146549013E1
6.252472083E-1,4.825410039E0,-6.680224612E-1,1.044509416E1,1.152522573E1
6.351822084E-1,4.884581231E0,-2.090253004E0,1.003621825E1,1.135579007E1
6.451182083E-1,4.638158513E0,-3.323661750E0,9.259805658E0,1.087672941E1
6.550542083E-1,4.234976329E0,-3.793356304E0,8.927699597E0,1.058434677E1
6.649892083E-1,4.131364253E0,-4.224336443E0,9.131586744E0,1.087653738E1
6.749252084E-1,4.442730240E0,-4.994191089E0,9.283730126E0,1.143973084E1
6.848602083E-1,4.958238899E0,-6.124512253E0,8.992268645E0,1.195636561E1
6.947962084E-1,5.539674329E0,-7.202286245E0,8.021423855E0,1.212040261E1
7.047312083E-1,5.481931905E0,-7.973569073E0,6.572020133E0,1.169704363E1
7.146672083E-1,5.155263169E0,-8.695554610E0,5.019335870E0,1.128641400E1
7.246032083E-1,4.814665781E0,-9.318103568E0,3.839946041E0,1.116929927E1
7.345382083E-1,3.924828024E0,-9.855376732E0,3.193523487E0,1.107841676E1
7.444742083E-1,2.637272015E0,-1.068453998E1,2.593526655E0,1.130667850E1
7.544092083E-1,7.915983939E-1,-1.159566482E1,1.827218346E0,1.176540681E1
7.643452083E-1,-1.920009858E0,-1.188294554E1,1.019393052E0,1.208014879E1
7.742802083E-1,-3.057922463E0,-1.194822853E1,1.421379188E-1,1.233415007E1
7.842162084E-1,-3.486812223E0,-1.160965603E1,-6.792207563E-1,1.214097663E1
7.941512083E-1,-3.718369856E0,-1.133564381E1,-1.441638182E0,1.201671401E1
8.040872084E-1,-4.038634429E0,-1.120721791E1,-2.316469206E0,1.213582840E1
8.140232083E-1,-4.670871346E0,-1.111087567E1,-3.093715609E0,1.244345907E1
8.239582083E-1,-5.261559702E0,-1.084450577E1,-3.479255281E0,1.254561808E1
8.338942083E-1,-5.245669309E0,-1.077668508E1,-3.653870682E0,1.253015398E1
8.438292083E-1,-5.895822387E0,-1.049580121E1,-3.967187301E0,1.267521754E1
8.537652083E-1,-6.777697113E0,-1.021006416E1,-4.721147168E0,1.313285265E1
8.637002083E-1,-7.186582378E0,-1.043569651E1,-5.360079439E0,1.375794969E1
8.736362083E-1,-7.441134480E0,-1.064203306E1,-5.544007115E0,1.411946758E1
8.835722083E-1,-8.118304617E0,-1.049753199E1,-5.248123970E0,1.427052392E1
8.935072084E-1,-9.070938839E0,-1.045124426E1,-4.885707112E0,1.467584996E1
9.034432083E-1,-9.926622716E0,-1.061898450E1,-4.631642084E0,1.525623738E1
9.133782084E-1,-1.038556483E1,-1.081645082E1,-5.133563567E0,1.584957539E1
9.233143333E-1,-1.060830632E1,-1.092979208E1,-5.541138471E0,1.620804533E1
9.332493333E-1,-1.080154393E1,-1.093437045E1,-5.545502248E0,1.633971859E1
9.431853333E-1,-1.065815617E1,-1.105247252E1,-5.454419585E0,1.629429761E1
9.531203333E-1,-1.015564295E1,-1.130144228E1,-5.576601250E0,1.618512165E1
9.630563333E-1,-9.618456325E0,-1.139268223E1,-6.084096299E0,1.610354428E1
9.729923334E-1,-9.103616003E0,-1.146731142E1,-6.557894429E0,1.604309929E1
9.829273333E-1,-8.354850803E0,-1.179735633E1,-6.919041857E0,1.602667428E1
9.928633333E-1,-7.059659207E0,-1.228366224E1,-7.329053296E0,1.595124348E1
1.002798333E0,-5.729661475E0,-1.253434173E1,-7.508846991E0,1.569463368E1
1.012734333E0,-4.654014408E0,-1.252314782E1,-7.188590312E0,1.517118691E1
1.022669333E0,-3.420950647E0,-1.252946048E1,-6.657616938E0,1.459500416E1
1.032605333E0,-2.235229161E0,-1.251115869E1,-6.145977382E0,1.411730779E1
1.042540333E0,-1.485084018E0,-1.224371173E1,-5.099748534E0,1.334621244E1
1.052476333E0,-5.722974014E-1,-1.220797121E1,-3.445917381E0,1.269789084E1
1.062412333E0,1.232461497E0,-1.171058833E1,-1.312737336E0,1.184821167E1
1.072347333E0,3.092816015E0,-1.031771724E1,1.544879984E0,1.088151893E1
1.082283333E0,5.233177317E0,-9.049157960E0,4.759639388E0,1.148597282E1
1.092218333E0,7.319191382E0,-7.595570555E0,7.793255560E0,1.311480411E1
1.102154333E0,8.341761811E0,-5.868986006E0,1.008036707E1,1.434028546E1
1.112089333E0,8.762702866E0,-4.621084936E0,1.126307285E1,1.499987325E1
1.122025333E0,8.773242472E0,-3.743842959E0,1.191435444E1,1.526230603E1
1.131961333E0,8.616592641E0,-3.045783643E0,1.286820722E1,1.578332107E1
1.141896333E0,8.495660527E0,-2.551323792E0,1.437127494E1,1.688842930E1
1.151832333E0,8.241155788E0,-1.866796980E0,1.613886952E1,1.821715370E1
1.161767333E0,7.982057476E0,-9.991881444E-1,1.797048175E1,1.968882508E1
1.171703333E0,8.153634664E0,-2.754126281E-1,1.984182699E1,2.145357100E1
1.181638333E0,8.704318417E0,1.334337536E-1,2.151260805E1,2.320722450E1
1.191574333E0,9.437904246E0,1.172235176E-1,2.263464196E1,2.452375979E1
1.201509333E0,1.003441146E1,-1.103562552E-1,2.329635498E1,2.536575935E1
1.211445333E0,1.078671773E1,-2.716078448E-1,2.419981529E1,2.649637919E1
1.221381333E0,1.128572613E1,-8.066751471E-1,2.464509479E1,2.711824177E1
1.231316333E0,1.086271283E1,-1.531234921E0,2.294516653E1,2.543273240E1
1.241252333E0,9.680739112E0,-2.505905252E0,1.955652964E1,2.196483832E1
1.251187333E0,8.047879583E0,-3.578122927E0,1.614465592E1,1.839079238E1
1.261123333E0,6.480648617E0,-4.420230154E0,1.372893608E1,1.581205005E1
1.271058333E0,5.389929475E0,-5.094070303E0,1.245701815E1,1.449752369E1
1.280994333E0,4.628148080E0,-5.731268874E0,1.238993656E1,1.441449706E1
1.290930333E0,4.181574293E0,-6.476486569E0,1.240856812E1,1.460831971E1
1.300865333E0,4.174638619E0,-7.283930333E0,1.196205603E1,1.461417234E1
1.310801333E0,4.288621317E0,-8.410854850E0,1.094609997E1,1.445516713E1
1.320736333E0,4.344645537E0,-9.706910080E0,9.572156317E0,1.430825722E1
1.330672333E0,4.300211083E0,-1.076753302E1,8.015725159E0,1.409551108E1
1.340607333E0,4.052831176E0,-1.170691511E1,6.195334899E0,1.385133483E1
1.350543333E0,3.521567488E0,-1.263171542E1,4.612987711E0,1.390112684E1
1.360478333E0,2.675233016E0,-1.356497781E1,3.383114777E0,1.423414768E1
1.370414333E0,1.893160321E0,-1.439980233E1,2.061996626E0,1.466936240E1
1.380350333E0,1.014944490E0,-1.481262979E1,5.598393238E-1,1.485791148E1
1.390285333E0,-2.302604288E-1,-1.477758860E1,-9.848091102E-1,1.481215695E1
1.400221333E0,-1.248013190E0,-1.445477084E1,-2.333990387E0,1.469508244E1
1.410156333E0,-1.885016465E0,-1.405474527E1,-3.599930702E0,1.463040166E1
1.420092333E0,-2.406724049E0,-1.342610293E1,-4.560578533E0,1.438233073E1
1.430027333E0,-2.879382411E0,-1.267692492E1,-5.155888236E0,1.398493661E1
1.439963333E0,-3.688491461E0,-1.208512120E1,-5.776718112E0,1.389336518E1
1.449899333E0,-4.438197479E0,-1.180322460E1,-6.826685085E0,1.433936320E1
1.459834333E0,-5.076505852E0,-1.135559217E1,-7.533449736E0,1.454211987E1
1.469770333E0,-5.595726323E0,-1.078646864E1,-7.456012135E0,1.425665374E1
1.479705333E0,-5.877626436E0,-1.011965919E1,-6.960642457E0,1.361633350E1
1.489641333E0,-6.227934880E0,-9.469099141E0,-6.899373577E0,1.326847268E1
1.499576333E0,-6.973420377E0,-9.049407052E0,-7.560572630E0,1.369973059E1
1.509512333E0,-7.717341160E0,-8.971469514E0,-8.459745759E0,1.454688689E1
1.519447333E0,-8.282698501E0,-8.783837627E0,-8.964956886E0,1.503759788E1
1.529383333E0,-9.027198157E0,-8.739070759E0,-9.280874931E0,1.562038104E1
1.539319333E0,-9.804141090E0,-8.869612772E0,-9.847115786E0,1.648505088E1
1.549254333E0,-1.035485291E1,-8.977319069E0,-1.061209064E1,1.733296582E1
1.559190333E0,-1.058718384E1,-9.069405114E0,-1.121198339E1,1.788997323E1
1.569125333E0,-1.048605858E1,-9.124643760E0,-1.132480191E1,1.792951998E1
1.579061333E0,-9.923563453E0,-9.150153993E0,-1.099604922E1,1.741021333E1
1.588996333E0,-9.081664971E0,-9.126387985E0,-1.028596218E1,1.647933901E1
1.598932333E0,-8.276999220E0,-9.130573422E0,-9.816293943E0,1.575549789E1
1.608867333E0,-7.660637786E0,-9.353096815E0,-9.706960950E0,1.550454392E1
1.618803333E0,-6.901147038E0,-9.685353734E0,-9.428320659E0,1.517646658E1
1.628739333E0,-6.245575930E0,-9.935095332E0,-8.905003629E0,1.473134168E1
1.638674333E0,-5.426863412E0,-1.028977457E1,-8.522492230E0,1.442092858E1
1.648610333E0,-4.384616518E0,-1.083358901E1,-8.251894784E0,1.430682636E1
1.658545333E0,-3.526171878E0,-1.132097432E1,-7.829364456E0,1.420905681E1
1.668481333E0,-2.611908547E0,-1.190985910E1,-7.283483021E0,1.420267352E1
1.678416333E0,-1.708388599E0,-1.245833261E1,-6.435539103E0,1.412603294E1
1.688352333E0,-9.774971670E-1,-1.275001628E1,-5.144156967E0,1.378335107E1
1.698287333E0,-4.160206228E-2,-1.256312407E1,-3.191679275E0,1.296227733E1
1.708223333E0,1.181647147E0,-1.193198730E1,-5.199928880E-2,1.199046767E1
1.718159333E0,2.888056755E0,-1.108195067E1,3.187043018E0,1.188729345E1
1.728094333E0,4.528263896E0,-1.005509774E1,5.579268165E0,1.235873771E1
1.738030333E0,5.382869546E0,-8.850545002E0,6.900123190E0,1.244665141E1
1.747965333E0,6.014736627E0,-7.870472136E0,7.120020014E0,1.219901936E1
1.757901333E0,6.554700680E0,-7.379771460E0,6.516782656E0,1.182766181E1
1.767836333E0,6.693052234E0,-6.785074545E0,6.708189506E0,1.165478405E1
1.777772333E0,7.415989698E0,-6.024991474E0,8.731509724E0,1.294359639E1
1.787708333E0,8.386959618E0,-5.106377522E0,1.192874327E1,1.545027828E1
1.797643333E0,9.236805051E0,-3.837042606E0,1.533266946E1,1.830661673E1
1.807579333E0,1.026349718E1,-2.312536076E0,1.859523570E1,2.136515827E1
1.817514333E0,1.133091459E1,-9.601443851E-1,2.100814303E1,2.388835650E1
1.827450333E0,1.205320593E1,-2.698928565E-1,2.189903884E1,2.499841030E1
1.837385333E0,1.265191053E1,-2.635123748E-1,2.152381599E1,2.496827855E1
1.847321333E0,1.268947070E1,-4.355728349E-1,2.072118507E1,2.430184975E1
1.857256333E0,1.212356665E1,-7.674935398E-1,1.939700240E1,2.288697482E1
1.867192333E0,1.125331034E1,-1.050032170E0,1.795052871E1,2.121228517E1
1.877128333E0,1.037418147E1,-1.276180252E0,1.668299737E1,1.968691643E1
1.887063333E0,9.510647702E0,-1.428454319E0,1.536467010E1,1.812638929E1
1.896999333E0,8.909676139E0,-1.599986775E0,1.450346411E1,1.709657152E1
1.906934333E0,8.651651376E0,-1.750247061E0,1.387248171E1,1.644263316E1
1.916870333E0,8.423296555E0,-2.046208267E0,1.324943750E1,1.583308205E1
1.926804458E0,8.309678138E0,-2.680591697E0,1.291720806E1,1.559136257E1
1.936740458E0,8.241383829E0,-3.659908225E0,1.285298224E1,1.570077986E1
1.946675458E0,8.063412126E0,-5.115143083E0,1.227363778E1,1.555073915E1
1.956611458E0,7.858894649E0,-6.691924306E0,1.136270707E1,1.535106472E1
1.966547458E0,7.443497339E0,-8.109629104E0,1.065511445E1,1.532002614E1
1.976482458E0,6.985298411E0,-9.462385953E0,9.998829982E0,1.543721940E1
1.986418458E0,6.390830122E0,-1.077145650E1,9.455627156E0,1.569317908E1
1.996353458E0,5.610560124E0,-1.210652903E1,9.003878877E0,1.609708871E1
2.006289458E0,4.679848868E0,-1.341958446E1,8.201191823E0,1.640871048E1
2.016224458E0,3.668111868E0,-1.458829318E1,6.739405451E0,1.648311040E1
2.026160458E0,2.716278131E0,-1.555578517E1,4.767296317E0,1.649508210E1
2.036096458E0,1.840045676E0,-1.598734711E1,2.606852460E0,1.630265977E1
2.046031458E0,1.052920402E0,-1.577645441E1,3.848836148E-1,1.581623503E1
2.055967458E0,6.810178980E-1,-1.524151370E1,-1.343209516E0,1.531573495E1
2.065902458E0,1.989412799E-1,-1.454136225E1,-2.566893465E0,1.476752301E1
2.075838458E0,-7.868121555E-1,-1.389890879E1,-3.640222111E0,1.438923055E1
2.085773458E0,-1.797279433E0,-1.356564556E1,-4.624982397E0,1.444463274E1
2.095709458E0,-2.728238318E0,-1.312785049E1,-5.475650826E0,1.448331781E1
2.105644458E0,-3.639461389E0,-1.248841185E1,-6.156091311E0,1.439109343E1
2.115580458E0,-4.851602642E0,-1.189229524E1,-6.384723290E0,1.434327109E1
2.125516458E0,-6.353443610E0,-1.170049370E1,-6.580822531E0,1.485176837E1
2.135451458E0,-7.654553758E0,-1.166931634E1,-7.721645295E0,1.594957502E1
2.145387458E0,-8.665628561E0,-1.123201361E1,-8.979797119E0,1.678952067E1
2.155322458E0,-9.179798791E0,-1.081266417E1,-9.483575678E0,1.706225717E1
2.165258458E0,-8.950525957E0,-1.022871677E1,-9.701286812E0,1.669890798E1
2.175193458E0,-8.658259315E0,-9.335492603E0,-9.901522958E0,1.612938416E1
2.185129458E0,-8.183173043E0,-8.762190650E0,-9.741712123E0,1.544801803E1
2.195064458E0,-7.779782991E0,-8.552105454E0,-9.463224444E0,1.494041994E1
2.205000458E0,-7.623783370E0,-8.561908311E0,-9.224813581E0,1.471480657E1
2.214936458E0,-7.731147605E0,-8.736569905E0,-8.885613678E0,1.466466595E1
2.224871458E0,-7.927895887E0,-8.848042978E0,-8.709082729E0,1.473049625E1
2.234807458E0,-8.226599729E0,-8.983627630E0,-8.786815614E0,1.501967500E1
2.244742458E0,-8.673231111E0,-9.186081625E0,-8.856272934E0,1.542862936E1
2.254678458E0,-8.886662083E0,-9.366916709E0,-8.884896809E0,1.567333031E1
2.264613458E0,-8.851907403E0,-9.632708328E0,-9.021397719E0,1.589122246E1
2.274549458E0,-8.599959067E0,-9.969988006E0,-9.224348727E0,1.607633560E1
2.284484458E0,-8.223594845E0,-1.044274358E1,-9.272423365E0,1.620667272E1
2.294420458E0,-7.737570772E0,-1.090556005E1,-9.148905612E0,1.620196641E1
2.304356458E0,-7.011865236E0,-1.135963026E1,-9.123903503E0,1.616951047E1
2.314291458E0,-6.301908005E0,-1.174189432E1,-9.296018050E0,1.624814077E1
2.324227458E0,-5.326435729E0,-1.197673254E1,-9.376150047E0,1.611599297E1
2.334162458E0,-3.851637256E0,-1.224568341E1,-8.972223805E0,1.566182211E1
2.344098458E0,-2.236290430E0,-1.258829399E1,-7.842006721E0,1.499877361E1
2.354033458E0,-6.868981504E-1,-1.308796781E1,-6.171908614E0,1.448651740E1
2.363969458E0,6.705326709E-1,-1.352061499E1,-4.462614866E0,1.425382668E1
2.373905458E0,1.730681401E0,-1.360980841E1,-2.979841669E0,1.403928772E1
2.383840458E0,2.498231366E0,-1.381606427E1,-1.635179120E0,1.413501336E1
2.393776458E0,2.855478993E0,-1.375460652E1,-2.453936076E-1,1.405002416E1
2.403711458E0,3.183592868E0,-1.344845450E1,2.740967122E0,1.408932549E1
2.413647458E0,4.429891801E0,-1.332643597E1,7.241480716E0,1.580053417E1
2.423582458E0,6.155126520E0,-1.222828092E1,1.155531903E1,1.791484956E1
2.433518458E0,7.632142550E0,-9.853688056E0,1.501467214E1,1.951371691E1
2.443453458E0,8.674290626E0,-7.571486458E0,1.738498602E1,2.085206138E1
2.453389458E0,9.605443347E0,-5.928252799E0,1.872331545E1,2.186255393E1
2.463325458E0,1.066757370E1,-4.432411074E0,1.985654560E1,2.297228329E1
2.473260458E0,1.222814293E1,-3.159785053E0,2.153942572E1,2.496915260E1
2.483196458E0,1.400133096E1,-1.980584381E0,2.338595304E1,2.732879036E1
2.493131458E0,1.518303219E1,-6.756948853E-1,2.474944654E1,2.904334923E1
2.503067458E0,1.576164342E1,-3.426351428E-2,2.526113171E1,2.977507938E1
2.513002458E0,1.597212213E1,1.144908214E-1,2.502822541E1,2.969063591E1
2.522938458E0,1.590087147E1,-9.525202006E-2,2.434910172E1,2.908136071E1
2.532873458E0,1.518137509E1,-4.784732714E-1,2.247236301E1,2.712397806E1
2.542809458E0,1.398453775E1,-9.421060172E-1,1.972971949E1,2.420158448E1
2.552745458E0,1.272848683E1,-1.554336978E0,1.728225161E1,2.151991081E1
2.562680458E0,1.156123875E1,-2.101838969E0,1.515888553E1,1.917998381E1
2.572616458E0,1.062455924E1,-2.602650066E0,1.335332965E1,1.726170499E1
2.582551458E0,1.017401724E1,-3.524294044E0,1.230646171E1,1.635176673E1
2.592487458E0,9.712830386E0,-4.902423132E0,1.185465203E1,1.609054385E1
2.602422458E0,9.058503565E0,-6.695531453E0,1.097127340E1,1.572435908E1
2.612358458E0,8.262121564E0,-8.445908908E0,9.731163746E0,1.530658609E1
2.622293458E0,7.571655443E0,-1.010366354E1,8.494266551E0,1.521731078E1
2.632229458E0,6.626689260E0,-1.155147156E1,7.306843817E0,1.519011100E1
2.642165458E0,5.355286476E0,-1.265688651E1,6.047575175E0,1.501496037E1
2.652100458E0,4.431509726E0,-1.355507964E1,4.797787793E0,1.504650226E1
2.662036458E0,3.896806705E0,-1.440435614E1,3.736635681E0,1.538288089E1
2.671971458E0,3.155301700E0,-1.499015126E1,2.743218300E0,1.556232021E1
2.681907458E0,2.427564549E0,-1.531959976E1,1.668095436E0,1.560018426E1
2.691842458E0,1.382748388E0,-1.542805859E1,5.897758985E-1,1.550112321E1
2.701778458E0,8.271047339E-2,-1.540128770E1,-6.156767249E-1,1.541381075E1
2.711714458E0,-9.311362021E-1,-1.529805628E1,-2.166845097E0,1.547878413E1
2.721649458E0,-2.000063503E0,-1.474492371E1,-3.669015263E0,1.532562241E1
2.731585458E0,-3.258260935E0,-1.386172284E1,-4.782671278E0,1.502123726E1
2.741520458E0,-4.406835645E0,-1.302983947E1,-5.753052092E0,1.490954477E1
2.751456458E0,-5.232885541E0,-1.237681307E1,-6.833191867E0,1.507518172E1
2.761391458E0,-5.821893700E0,-1.160128399E1,-7.885714658E0,1.518778233E1
2.771327458E0,-6.311834823E0,-1.063446208E1,-8.848720086E0,1.520627797E1
2.781262458E0,-6.691857648E0,-9.923630111E0,-9.277161364E0,1.514348429E1
2.791198458E0,-7.382136074E0,-9.464851139E0,-9.122588464E0,1.507650359E1
2.801134458E0,-8.184938318E0,-9.069907390E0,-8.924565489E0,1.512958375E1
2.811069458E0,-8.514628894E0,-8.590680120E0,-8.626210726E0,1.485631858E1
2.821005458E0,-8.389931758E0,-8.143238899E0,-8.049873483E0,1.419520193E1
2.830940458E0,-8.177704727E0,-7.837344736E0,-7.667675495E0,1.367816050E1
2.840876458E0,-8.045312070E0,-7.673065458E0,-7.727348084E0,1.353938286E1
2.850811458E0,-7.976148280E0,-7.681639815E0,-8.082541292E0,1.370963185E1
2.860747458E0,-7.986346993E0,-7.798633245E0,-8.422028879E0,1.398323958E1
2.870682458E0,-8.066298312E0,-7.887382869E0,-8.775124691E0,1.429261314E1
2.880618458E0,-8.074699591E0,-7.919875846E0,-9.089856336E0,1.451036509E1
2.890554458E0,-7.995017245E0,-7.934679826E0,-9.195528971E0,1.454088023E1
2.900489458E0,-7.681295414E0,-8.044208701E0,-9.141419422E0,1.439712270E1
2.910425458E0,-7.263942211E0,-8.214169718E0,-8.995249556E0,1.418280491E1
2.920361833E0,-6.772491921E0,-8.485688100E0,-8.866928315E0,1.401770192E1
2.930297833E0,-6.253866697E0,-8.943724476E0,-8.746059351E0,1.398551430E1
2.940232833E0,-5.753111733E0,-9.415514088E0,-8.562102438E0,1.396638100E1
2.950168833E0,-5.239976460E0,-9.836510106E0,-8.168648559E0,1.381814400E1
2.960103833E0,-4.754825083E0,-1.024595670E1,-7.717782624E0,1.368035668E1
2.970039833E0,-4.279825058E0,-1.059674287E1,-7.397793163E0,1.361378733E1
2.979975833E0,-3.614146453E0,-1.106264082E1,-7.153771312E0,1.366091214E1
2.989910833E0,-2.731197594E0,-1.161382393E1,-6.480602424E0,1.357713351E1
2.999846833E0,-1.559971063E0,-1.203814000E1,-5.257113479E0,1.322828660E1
3.009781833E0,-2.893918589E-1,-1.232849869E1,-4.056605846E0,1.298197514E1
3.019717833E0,6.106756014E-1,-1.238048044E1,-3.372289242E0,1.284607159E1
3.029652833E0,1.029059961E0,-1.216723365E1,-2.920511141E0,1.255507565E1
3.039588833E0,1.672570602E0,-1.203908023E1,-2.180549508E0,1.234875465E1
3.049523833E0,2.523231429E0,-1.175489035E1,-5.738667941E-1,1.203633943E1
3.059459833E0,3.633043777E0,-1.114115840E1,2.065255864E0,1.189914701E1
3.069395833E0,4.766809829E0,-1.044191327E1,5.469225320E0,1.271489105E1
3.079330833E0,5.562581381E0,-9.602851861E0,8.582584065E0,1.402917762E1
3.089266833E0,6.279445927E0,-8.562004205E0,1.112757766E1,1.538058327E1
3.099201833E0,6.769130357E0,-7.484679279E0,1.324880483E1,1.665450026E1
3.109137833E0,7.470913764E0,-6.380702745E0,1.458259331E1,1.758351352E1
3.119072833E0,8.035889282E0,-4.998519198E0,1.509671559E1,1.781773084E1
3.129008833E0,8.561591976E0,-3.683255280E0,1.529777093E1,1.791337551E1
3.138943833E0,9.072911105E0,-2.707222548E0,1.549077934E1,1.815519249E1
3.148879833E0,9.447644538E0,-1.819013826E0,1.575147394E1,1.845740312E1
3.158815833E0,1.008081964E1,-8.933381921E-1,1.592846448E1,1.887159130E1
3.168750833E0,1.085980559E1,4.723526984E-2,1.577295544E1,1.915003216E1
3.178686833E0,1.155485359E1,8.087927163E-1,1.530620964E1,1.919502124E1
3.188621833E0,1.202935748E1,1.264041139E0,1.470269512E1,1.903871017E1
3.198557833E0,1.243772468E1,1.484520346E0,1.423037809E1,1.895796551E1
3.208492833E0,1.279159466E1,1.695458943E0,1.443922660E1,1.936467763E1
3.218428833E0,1.322613985E1,1.616035336E0,1.483255944E1,1.993858483E1
3.228363833E0,1.354186026E1,1.315778765E0,1.486424784E1,2.015090859E1
3.238299833E0,1.316333023E1,7.152758574E-1,1.444341554E1,1.955497724E1
3.248235833E0,1.233902602E1,-2.714870998E-1,1.367418977E1,1.842033480E1
3.258170833E0,1.122373278E1,-1.395166997E0,1.273236705E1,1.703032117E1
3.268106833E0,1.028250531E1,-2.684614581E0,1.176059255E1,1.585082358E1
3.278041833E0,9.487564648E0,-4.146626363E0,1.120109704E1,1.525362148E1
3.287977833E0,8.636830439E0,-5.814406925E0,1.043690806E1,1.474215784E1
3.297912833E0,7.915046631E0,-7.423486413E0,9.707893581E0,1.456019613E1
3.307848833E0,7.304009671E0,-8.860051990E0,9.213047814E0,1.472172981E1
3.317783833E0,7.040304923E0,-1.017056972E1,8.439991525E0,1.497463986E1
3.327719833E0,7.018466742E0,-1.147306975E1,7.576655982E0,1.543683649E1
3.337655833E0,6.863669894E0,-1.269460924E1,7.052677047E0,1.606248180E1
3.347590833E0,6.411876006E0,-1.368994801E1,6.489237592E0,1.645104966E1
3.357526833E0,5.749861851E0,-1.455972485E1,5.545308706E0,1.660713544E1
3.367461833E0,4.986420139E0,-1.538830220E1,4.306109462E0,1.673937900E1
3.377397833E0,4.234260045E0,-1.599159219E1,2.995137985E0,1.681162783E1
3.387332833E0,3.353988626E0,-1.630758742E1,1.793967862E0,1.674529688E1
3.397268833E0,2.378084241E0,-1.645349299E1,6.717883605E-1,1.663802920E1
3.407204833E0,1.287689034E0,-1.638928471E1,-3.383900642E-1,1.644327535E1
3.417139833E0,6.990200132E-3,-1.612853281E1,-1.475126502E0,1.619585186E1
3.427075833E0,-1.197558298E0,-1.579132154E1,-2.787958270E0,1.608019569E1
3.437010833E0,-2.425999103E0,-1.517601787E1,-3.981002810E0,1.587593693E1
3.446946833E0,-3.561803348E0,-1.427094607E1,-4.992986562E0,1.553306987E1
3.456881833E0,-4.458095554E0,-1.329565974E1,-5.883821561E0,1.520751590E1
3.466817833E0,-5.324792662E0,-1.228090002E1,-6.435317493E0,1.485217942E1
3.476752833E0,-6.059218150E0,-1.136595344E1,-6.808338277E0,1.456888782E1
3.486688833E0,-6.458618647E0,-1.045082443E1,-7.289653587E0,1.428539588E1
3.496624833E0,-6.727226286E0,-9.495876465E0,-7.567000474E0,1.388116492E1
3.506559833E0,-7.075512178E0,-8.872294305E0,-7.485507830E0,1.359460578E1
3.516495833E0,-7.477219402E0,-8.553233382E0,-7.403822812E0,1.356035411E1
3.526430833E0,-7.801483178E0,-8.199670962E0,-7.419774601E0,1.353332179E1
3.536366833E0,-7.983977702E0,-7.840600466E0,-7.575993492E0,1.351349670E1
3.546301833E0,-8.045608524E0,-7.583494885E0,-7.727718798E0,1.348921232E1
3.556237833E0,-8.042948626E0,-7.547751440E0,-7.899253301E0,1.356671578E1
3.566172833E0,-8.003642473E0,-7.566920952E0,-8.080905241E0,1.366080580E1
3.576108833E0,-7.964340997E0,-7.478080112E0,-8.106585043E0,1.360401157E1
3.586044833E0,-7.871575506E0,-7.390120447E0,-8.003435481E0,1.343988693E1
3.595979833E0,-7.718703561E0,-7.320620441E0,-7.782916514E0,1.318118575E1
3.605915833E0,-7.597274433E0,-7.298451893E0,-7.523718215E0,1.294574504E1
3.615850833E0,-7.470054224E0,-7.447665820E0,-7.367725026E0,1.286673262E1
3.625786833E0,-7.255467256E0,-7.701777626E0,-7.300632319E0,1.285528747E1
3.635721833E0,-6.766397953E0,-7.962140690E0,-7.446742544E0,1.283097035E1
3.645657833E0,-6.187390287E0,-8.232997168E0,-7.649396514E0,1.282884671E1
3.655592833E0,-5.744887040E0,-8.538545176E0,-7.770074859E0,1.289513645E1
3.665528833E0,-5.295858300E0,-8.850833269E0,-7.689894329E0,1.286537366E1
3.675463833E0,-4.798673353E0,-9.178279100E0,-7.365281475E0,1.270887266E1
3.685399833E0,-4.077240963E0,-9.445461187E0,-6.870038096E0,1.237085504E1
3.695335833E0,-3.269405143E0,-9.552831854E0,-6.221078435E0,1.185948664E1
3.705270833E0,-2.232888228E0,-9.603633633E0,-5.422283873E0,1.125241002E1
3.715206833E0,-8.235934809E-1,-9.833295307E0,-4.754352921E0,1.095334992E1
3.725141833E0,4.198797852E-1,-9.876735442E0,-4.118927810E0,1.070942428E1
3.735077833E0,1.375787570E0,-9.689080750E0,-3.381931300E0,1.035415552E1
3.745012833E0,2.107121344E0,-9.554914632E0,-2.855970159E0,1.019278762E1
3.754948833E0,2.549046886E0,-9.461118861E0,-2.345250371E0,1.007524736E1
3.764883833E0,2.894511204E0,-9.341514065E0,-9.365380061E-1,9.824417722E0
3.774819833E0,3.641531303E0,-9.278636616E0,9.675814587E-1,1.001449258E1
3.784755833E0,4.423854259E0,-8.669584787E0,3.440247921E0,1.032315323E1
3.794690833E0,5.080885416E0,-7.536307855E0,6.780312572E0,1.133948726E1
3.804626833E0,5.897115791E0,-6.729892032E0,9.533730170E0,1.307514560E1
3.814561833E0,6.113577960E0,-5.907080616E0,1.108117182E1,1.396645287E1
3.824497833E0,5.762951428E0,-4.751001589E0,1.157959433E1,1.377935521E1
3.834432833E0,5.789951531E0,-4.073479156E0,1.101748278E1,1.309586568E1
3.844368833E0,6.174303634E0,-3.582776434E0,1.020434675E1,1.245339331E1
3.854304833E0,6.587279611E0,-2.920288654E0,9.964106877E0,1.229649399E1
3.864239833E0,7.329122293E0,-2.403833332E0,1.016768354E1,1.276229747E1
3.874175833E0,7.685616506E0,-1.669827673E0,1.078716329E1,1.334990327E1
3.884110833E0,7.654811035E0,-1.092868871E0,1.213462607E1,1.438887224E1
3.894046833E0,7.618890420E0,-7.326201609E-1,1.380722913E1,1.578682361E1
3.903981833E0,7.830497646E0,-2.768554285E-1,1.523036891E1,1.712768167E1
3.913917833E0,8.071108232E0,1.975411642E-1,1.623171862E1,1.812872031E1
3.923852833E0,8.309756491E0,5.879349026E-1,1.679421843E1,1.874682621E1
3.933788833E0,8.777937201E0,6.618343529E-1,1.676721833E1,1.893752404E1
3.943724833E0,9.273513871E0,4.414361304E-1,1.610930833E1,1.859308313E1
3.953659833E0,9.628007167E0,4.663417608E-2,1.534135023E1,1.811236384E1
3.963595833E0,9.841318856E0,-5.160287681E-1,1.495633330E1,1.791116267E1
3.973530833E0,9.732877564E0,-9.989742824E-1,1.472971276E1,1.768307930E1
3.983466833E0,9.398621482E0,-1.840224893E0,1.404863259E1,1.700248779E1
3.993401833E0,8.930206883E0,-2.766784041E0,1.303637431E1,1.604215522E1
4.003337833E0,8.261822187E0,-3.554982571E0,1.225054127E1,1.519774222E1
4.013272833E0,7.689660441E0,-4.693008904E0,1.174333742E1,1.480071566E1
4.023208833E0,7.297466052E0,-6.188980145E0,1.096727157E1,1.455463952E1
4.033144833E0,7.280900890E0,-7.643724715E0,9.983924260E0,1.452985853E1
4.043079833E0,7.362712793E0,-8.928558553E0,8.942798862E0,1.462540081E1
4.053015833E0,7.561608172E0,-1.004924935E1,7.678001093E0,1.473489163E1
4.062950833E0,7.708274467E0,-1.081768342E1,6.254875342E0,1.468207190E1
4.072886833E0,7.582273986E0,-1.149955998E1,5.049005812E0,1.467048800E1
4.082821833E0,7.371175468E0,-1.238853790E1,4.055734026E0,1.497528222E1
4.092757833E0,7.107616900E0,-1.336451304E1,3.080112062E0,1.544718476E1
4.102692833E0,6.577479093E0,-1.432513339E1,1.837750643E0,1.586978277E1
4.112628833E0,5.768261284E0,-1.516252951E1,4.047197092E-1,1.622772127E1
4.122564833E0,4.902031661E0,-1.578285361E1,-1.029171351E0,1.655861033E1
4.132499833E0,3.708090743E0,-1.599648514E1,-2.143002198E0,1.655988926E1
4.142435833E0,2.379252514E0,-1.588900864E1,-2.747611898E0,1.629941131E1
4.152370833E0,9.431788351E-1,-1.559523166E1,-3.017634562E0,1.591247797E1
4.162306833E0,-8.230967599E-1,-1.537180370E1,-3.202127372E0,1.572334115E1
4.172241833E0,-2.882658021E0,-1.510748383E1,-3.600807785E0,1.579593623E1
4.182177833E0,-4.958429518E0,-1.448034656E1,-4.487958161E0,1.595017957E1
4.192112833E0,-6.776779684E0,-1.368351491E1,-5.918196173E0,1.637645777E1
4.202048833E0,-8.410717440E0,-1.278102173E1,-7.585996324E0,1.707752981E1
4.211983833E0,-9.392791223E0,-1.187807364E1,-8.938609332E0,1.758442200E1
4.221919833E0,-9.700845932E0,-1.104511204E1,-9.593696875E0,1.755391499E1
4.231855833E0,-9.554492463E0,-1.010834950E1,-9.641170419E0,1.692392457E1
4.241790833E0,-9.191089765E0,-9.316050026E0,-9.561430770E0,1.620758704E1
4.251726833E0,-8.723224220E0,-8.983084424E0,-9.359276152E0,1.563286591E1
4.261661833E0,-8.408803062E0,-8.535092395E0,-8.786618562E0,1.485800918E1
4.271597833E0,-8.288291947E0,-8.139742849E0,-8.033666756E0,1.412412824E1
4.281532833E0,-8.068005114E0,-8.050541820E0,-7.392007343E0,1.358475994E1
4.291468833E0,-7.967348220E0,-8.059421986E0,-7.180759136E0,1.341626707E1
4.301403833E0,-8.091703295E0,-7.984908578E0,-7.222167363E0,1.346826376E1
4.311339833E0,-8.297575572E0,-8.022804968E0,-7.221420089E0,1.361484734E1
4.321275833E0,-8.449201475E0,-8.164102934E0,-7.294454151E0,1.382933996E1
4.331210833E0,-8.375812486E0,-8.398329529E0,-7.644496547E0,1.411114812E1
4.341146833E0,-7.924886910E0,-8.691371512E0,-8.051624140E0,1.425385641E1
4.351081833E0,-7.192884507E0,-8.989867194E0,-8.378632014E0,1.423926874E1
4.361017833E0,-6.418887402E0,-9.281597062E0,-8.444122583E0,1.409444450E1
4.370952833E0,-5.676626644E0,-9.536829779E0,-8.229097660E0,1.381641272E1
4.380888833E0,-5.009740005E0,-9.823025258E0,-7.835754878E0,1.352731957E1
4.390823833E0,-4.385683927E0,-1.028823207E1,-7.449255093E0,1.343775815E1
4.400759833E0,-3.677691069E0,-1.065610614E1,-7.106518793E0,1.332593783E1
4.410695833E0,-2.840563331E0,-1.092229829E1,-6.761668725E0,1.315619869E1
4.420630833E0,-1.994202254E0,-1.133097189E1,-6.444788813E0,1.318723130E1
4.430566833E0,-1.301250481E0,-1.181669425E1,-6.200911973E0,1.340816263E1
4.440501833E0,-6.290691876E-1,-1.223622963E1,-5.862232472E0,1.358259228E1
4.450437833E0,4.475552416E-1,-1.236617815E1,-5.380712509E0,1.349350714E1
4.460372833E0,1.422114767E0,-1.210411062E1,-4.159352535E0,1.287758199E1
4.470308833E0,2.576480268E0,-1.179668157E1,-2.135814800E0,1.226220418E1
4.480243833E0,4.048022718E0,-1.152352889E1,3.936468369E-1,1.222019491E1
4.490179833E0,4.952734914E0,-1.104847653E1,2.553282609E0,1.237407244E1
4.500115833E0,5.559304016E0,-1.048523412E1,4.195878337E0,1.258774765E1
4.510050833E0,5.982002159E0,-9.531332227E0,6.044692497E0,1.277376026E1
4.519986833E0,6.374444470E0,-8.618070232E0,8.541006854E0,1.370596494E1
4.529921833E0,7.294001577E0,-8.072350180E0,1.071072849E1,1.526712157E1
4.539857833E0,8.253888685E0,-7.079973603E0,1.253327052E1,1.659323882E1
4.549792833E0,9.018886925E0,-5.908196265E0,1.430959500E1,1.791679696E1
4.559728833E0,1.027742057E1,-5.241434171E0,1.603465108E1,1.975368424E1
4.569663833E0,1.173573487E1,-4.449590778E0,1.795920130E1,2.191025428E1
4.579599833E0,1.309823084E1,-3.320574712E0,1.993151626E1,2.408018289E1
4.589535833E0,1.439906441E1,-2.143472899E0,2.153345688E1,2.599263929E1
4.599470833E0,1.567110279E1,-1.355697999E0,2.241378093E1,2.738245707E1
4.609406833E0,1.656579695E1,-9.418636501E-1,2.293220910E1,2.830545795E1
4.619341833E0,1.673534983E1,-5.795514572E-1,2.320076470E1,2.861264225E1
4.629277833E0,1.479554072E1,-7.536704296E-1,1.869806951E1,2.385568795E1
4.639212833E0,1.419463055E1,-1.758513855E0,1.739327035E1,2.251900888E1
4.649148833E0,1.263878353E1,-2.098389112E0,1.502480303E1,1.974555119E1
4.659083833E0,1.145522873E1,-3.008897653E0,1.305169519E1,1.762448517E1
4.669019833E0,1.077927891E1,-3.631377028E0,1.226190241E1,1.672525048E1
4.678955833E0,1.036114451E1,-4.342721510E0,1.190656829E1,1.637006152E1
4.688890833E0,9.981438024E0,-5.401012287E0,1.128716806E1,1.600625507E1
4.698826833E0,9.446976786E0,-6.694653202E0,1.052296621E1,1.564597615E1
4.708761833E0,8.709093254E0,-8.232329416E0,9.919917129E0,1.555713048E1
4.718697833E0,7.608672411E0,-9.474900164E0,9.308467941E0,1.530729252E1
4.728632833E0,6.646089152E0,-1.067305371E1,8.133479896E0,1.497458085E1
4.738568833E0,5.894932441E0,-1.191059702E1,6.230567297E0,1.467761965E1
4.748503833E0,4.934912601E0,-1.300216109E1,3.752873983E0,1.440463878E1
4.758439833E0,3.925946889E0,-1.385319760E1,1.219556108E0,1.445031002E1
4.768375833E0,3.018991409E0,-1.423426298E1,-7.467818248E-1,1.457004581E1
4.778310833E0,2.248979181E0,-1.434306329E1,-2.034269714E0,1.466013728E1
4.788246833E0,1.575846838E0,-1.430715788E1,-2.856936704E0,1.467447264E1
4.798181833E0,9.365646109E-1,-1.421032448E1,-3.209402186E0,1.459831283E1
4.808117833E0,2.657062501E-1,-1.418201928E1,-3.310794075E0,1.456576905E1
4.818052833E0,-7.699408919E-1,-1.411329110E1,-3.193576112E0,1.449057360E1
4.827988833E0,-2.063513248E0,-1.401327097E1,-3.022295378E0,1.448323581E1
4.837923833E0,-3.037736120E0,-1.381298279E1,-3.175911089E0,1.449526631E1
4.847859833E0,-3.865490772E0,-1.345619972E1,-3.574059697E0,1.444940250E1
4.857795833E0,-4.346500273E0,-1.302602240E1,-4.126310504E0,1.433861090E1
4.867730833E0,-4.359987461E0,-1.241460596E1,-4.516131215E0,1.391141161E1
4.877666833E0,-3.970473728E0,-1.168037460E1,-4.642454755E0,1.318135799E1
4.887601833E0,-4.033060863E0,-1.077243649E1,-4.198534727E0,1.224494434E1
4.897537833E0,-5.346377074E0,-1.013533674E1,-3.813709000E0,1.207696878E1
4.907472833E0,-6.844486349E0,-1.012887323E1,-4.995763990E0,1.320601091E1
4.917408833E0,-7.869136632E0,-9.843771179E0,-6.289060503E0,1.408458109E1
4.927343625E0,-8.805914959E0,-9.144562885E0,-6.551139725E0,1.428581815E1
4.937279625E0,-9.473607345E0,-8.581181903E0,-6.960497446E0,1.455453344E1
4.947215625E0,-9.895948223E0,-8.176276252E0,-8.271652526E0,1.527093711E1
4.957150625E0,-1.009673576E1,-7.653496581E0,-9.965882092E0,1.611951888E1
4.967086625E0,-1.003984937E1,-7.197038369E0,-1.141164826E1,1.681730218E1
4.977021625E0,-9.953881266E0,-6.948096671E0,-1.215884758E1,1.718119245E1
4.986957625E0,-9.870007635E0,-6.891159409E0,-1.197812651E1,1.698177386E1
4.996892625E0,-9.806142592E0,-6.936977021E0,-1.123901624E1,1.644985011E1
5.006828625E0,-9.735060915E0,-7.160102093E0,-1.048372087E1,1.599833979E1
5.016763625E0,-9.593822590E0,-7.678557163E0,-1.018005391E1,1.595729205E1
5.026699625E0,-9.167633075E0,-8.327960628E0,-1.040319301E1,1.617488328E1
5.036634625E0,-8.635815362E0,-8.814331441E0,-1.086955875E1,1.644436235E1
5.046570625E0,-7.970113369E0,-9.392504709E0,-1.108150511E1,1.656929713E1
5.056506625E0,-7.205060164E0,-1.003296135E1,-1.085335611E1,1.644288735E1
5.066441625E0,-6.450728999E0,-1.047909806E1,-1.021212355E1,1.599096207E1
5.076377625E0,-5.299967723E0,-1.099188834E1,-9.495343784E0,1.546197985E1
5.086312625E0,-3.827985561E0,-1.159628696E1,-8.886722894E0,1.510301919E1
5.096248625E0,-2.238574645E0,-1.227316649E1,-8.310040081E0,1.498994991E1
5.106183625E0,-5.813754961E-1,-1.312823992E1,-7.587609571E0,1.517433688E1
5.116119625E0,1.073076923E0,-1.395327854E1,-6.097992792E0,1.526535267E1
5.126054625E0,2.520840502E0,-1.454106872E1,-4.220403314E0,1.534956418E1
5.135990625E0,3.634982421E0,-1.421817495E1,-1.131953123E0,1.471906634E1
5.145926625E0,4.785710369E0,-1.345380236E1,3.432353595E0,1.468634988E1
5.155861625E0,6.071704295E0,-1.248509765E1,7.769815242E0,1.590953442E1
5.165797625E0,6.929660985E0,-1.079751637E1,1.123313511E1,1.705256243E1
5.175732625E0,7.192530166E0,-9.006496675E0,1.325798262E1,1.756768555E1
5.185668625E0,7.204080756E0,-8.079035302E0,1.319560335E1,1.706732371E1
5.195603625E0,6.895672874E0,-7.113039608E0,1.198921050E1,1.555271054E1
5.205539625E0,7.146863412E0,-6.130687498E0,1.084340415E1,1.436114199E1
5.215474625E0,7.222692443E0,-5.021736737E0,1.051615537E1,1.371038474E1
5.225410625E0,7.375054511E0,-3.829739726E0,1.119051826E1,1.393865253E1
5.235346625E0,8.028924664E0,-2.949475324E0,1.238718953E1,1.505342156E1
5.245281625E0,8.878206425E0,-2.017090595E0,1.333430398E1,1.614604802E1
5.255217625E0,9.669139990E0,-1.230375795E0,1.395459299E1,1.702165557E1
5.265152625E0,1.053538102E1,-7.526082829E-1,1.445535673E1,1.790301680E1
5.275088625E0,1.159471523E1,-1.928405875E-1,1.523757034E1,1.914831999E1
5.285023625E0,1.277515697E1,5.828697520E-1,1.628130184E1,2.070326454E1
5.294959625E0,1.346850226E1,1.149542424E0,1.701156411E1,2.172821471E1
5.304894625E0,1.336115674E1,1.192803342E0,1.695109455E1,2.161672722E1
5.314830625E0,1.287705640E1,5.909190291E-1,1.634310457E1,2.081501463E1
5.324766625E0,1.231538222E1,-4.553209287E-1,1.546339215E1,1.977352910E1
5.334701625E0,1.154862981E1,-1.516490582E0,1.433637408E1,1.847165980E1
5.344637625E0,1.064216170E1,-2.623414114E0,1.315986049E1,1.712658271E1
5.354572625E0,9.909427224E0,-3.865987493E0,1.255145770E1,1.645240705E1
5.364508625E0,9.302806667E0,-5.144112529E0,1.282004488E1,1.665405825E1
5.374443625E0,9.335974413E0,-6.565113401E0,1.289528802E1,1.722061512E1
5.384379625E0,9.270231244E0,-7.942916214E0,1.206408409E1,1.716301927E1
5.394314625E0,9.147508128E0,-9.474810117E0,1.048791683E1,1.683583473E1
5.404250625E0,8.877312970E0,-1.103456834E1,8.689153664E0,1.661534759E1
5.414186625E0,8.474048048E0,-1.253184029E1,7.178156540E0,1.674462430E1
5.424121625E0,8.061767889E0,-1.386430380E1,5.687031764E0,1.701626726E1
5.434057625E0,7.461132542E0,-1.512508161E1,4.377080626E0,1.742398999E1
5.443992625E0,6.315191710E0,-1.616499371E1,3.426015213E0,1.768972154E1
5.453928625E0,4.647364954E0,-1.684224161E1,2.772506418E0,1.769027686E1
5.463863625E0,2.858549074E0,-1.742056399E1,2.084823571E0,1.777621562E1
5.473799625E0,1.202242794E0,-1.777905210E1,1.352237032E0,1.787088767E1
5.483734625E0,-4.007251838E-1,-1.778310539E1,3.449950790E-1,1.779096511E1
5.493670625E0,-1.791356349E0,-1.750680925E1,-1.158098070E0,1.763628415E1
5.503606625E0,-2.737981533E0,-1.663164128E1,-2.758522217E0,1.707973885E1
5.513541625E0,-3.385533770E0,-1.528225710E1,-4.289310704E0,1.622983079E1
5.523477625E0,-4.099284673E0,-1.395988589E1,-5.723509619E0,1.563461261E1
5.533412625E0,-4.708071916E0,-1.257474015E1,-6.695257219E0,1.500388284E1
5.543348625E0,-5.346718551E0,-1.132422888E1,-7.200019864E0,1.444527068E1
5.553283625E0,-5.906810474E0,-1.044384987E1,-8.070642208E0,1.446027924E1
5.563219625E0,-6.323080773E0,-9.778150216E0,-8.965848586E0,1.469625847E1
5.573154625E0,-6.580272893E0,-9.202029905E0,-9.546685846E0,1.480258614E1
5.583090625E0,-6.831632414E0,-8.563801054E0,-9.753715872E0,1.466781726E1
5.593025625E0,-7.291364483E0,-7.895442086E0,-9.909956982E0,1.461879780E1
5.602961625E0,-7.868479405E0,-7.374567438E0,-9.959808004E0,1.467974756E1
5.612897625E0,-8.397118571E0,-7.203350438E0,-9.596273743E0,1.464542002E1
5.622832625E0,-8.829300898E0,-7.106608256E0,-9.257237561E0,1.463409999E1
5.632768625E0,-9.206779014E0,-6.989772701E0,-9.055201058E0,1.468394935E1
5.642703625E0,-9.512786613E0,-7.058241257E0,-9.183262097E0,1.498813469E1
5.652639625E0,-9.546989901E0,-7.126564218E0,-9.314664820E0,1.512269534E1
5.662574625E0,-9.354538153E0,-7.203074450E0,-9.423129501E0,1.510586096E1
5.672510625E0,-8.955504277E0,-7.379232346E0,-9.618416564E0,1.507209554E1
5.682445625E0,-8.396107002E0,-7.513638200E0,-9.770229578E0,1.491330808E1
5.692381625E0,-7.641523238E0,-7.544835434E0,-9.854363995E0,1.457483821E1
5.702317625E0,-6.825888110E0,-7.553482296E0,-9.890800334E0,1.419421624E1
5.712252625E0,-6.067454538E0,-7.864920205E0,-9.798441224E0,1.395279272E1
5.722188625E0,-5.525729304E0,-8.371187339E0,-9.636237123E0,1.390926050E1
5.732123625E0,-5.190901363E0,-8.927514825E0,-9.302317840E0,1.389888827E1
5.742059625E0,-5.094168536E0,-9.450524291E0,-8.804002919E0,1.388428716E1
5.751994625E0,-5.240953529E0,-1.011450194E1,-8.298166725E0,1.409362673E1
5.761930625E0,-5.277874603E0,-1.108224420E1,-8.155292934E0,1.473705872E1
5.771865625E0,-5.148749955E0,-1.197440768E1,-8.244568807E0,1.542300166E1
5.781801625E0,-4.637449538E0,-1.254963805E1,-7.899377847E0,1.553703716E1
5.791737625E0,-3.241877329E0,-1.324276582E1,-7.085322052E0,1.536497328E1
5.801672625E0,-8.580350429E-1,-1.388404984E1,-6.404802629E0,1.531419475E1
5.811608625E0,1.501550946E0,-1.397347599E1,-5.662769912E0,1.515188601E1
5.821543625E0,3.950882925E0,-1.411733972E1,-5.171452940E0,1.554518196E1
5.831479625E0,5.273935919E0,-1.464489539E1,-4.485932393E0,1.619910339E1
5.841414625E0,5.677321878E0,-1.513630592E1,-2.167755216E0,1.631069904E1
5.851350625E0,6.048438224E0,-1.535862408E1,1.482073871E0,1.657309511E1
5.861285625E0,6.310826179E0,-1.449211934E1,6.292687531E0,1.701311160E1
5.871221625E0,6.273356051E0,-1.255467133E1,1.195145386E1,1.843399082E1
5.881157625E0,6.103664591E0,-1.030652918E1,1.661012235E1,2.047865791E1
5.891092625E0,6.322780811E0,-8.151762385E0,1.905762649E1,2.167076175E1
5.901028625E0,6.754424610E0,-6.665016589E0,1.955152910E1,2.173262497E1
5.910963625E0,7.874068758E0,-5.910667883E0,1.896373658E1,2.136727074E1
5.920899625E0,9.591839799E0,-4.967165258E0,1.852943347E1,2.144798420E1
5.930834083E0,1.144436226E1,-3.907134642E0,1.833325354E1,2.196240684E1
5.940770083E0,1.311695830E1,-2.727363575E0,1.851717303E1,2.285560772E1
5.950705083E0,1.416452441E1,-1.509173669E0,1.922321145E1,2.392578558E1
5.960641083E0,1.465073208E1,-9.766785568E-1,1.961581690E1,2.450261464E1
5.970576083E0,1.428832400E1,-1.275971214E0,1.939878580E1,2.412669052E1
5.980512083E0,1.319335217E1,-1.798473727E0,1.910146424E1,2.328443655E1
5.990448083E0,1.167830936E1,-2.241005333E0,1.812841271E1,2.168050649E1
6.000383083E0,9.965321928E0,-2.759778199E0,1.641309224E1,1.939880444E1
6.010319083E0,8.401048484E0,-3.229731785E0,1.448962024E1,1.705748744E1
6.020254083E0,7.408126947E0,-3.679662750E0,1.272004813E1,1.517299863E1
6.030190083E0,6.778882343E0,-4.137867233E0,1.128200730E1,1.379706055E1
6.040125083E0,6.345676754E0,-4.811423207E0,1.024473347E1,1.297582254E1
6.050061083E0,6.322313619E0,-5.701214186E0,9.765307392E0,1.295518125E1
6.059996083E0,6.376762891E0,-6.604835876E0,9.760406840E0,1.339972028E1
6.069932083E0,6.687157656E0,-7.697854729E0,9.513842036E0,1.394590389E1
6.079868083E0,7.015584065E0,-8.791163018E0,8.898954685E0,1.434204872E1
6.089803083E0,6.870700586E0,-9.763288933E0,8.165664141E0,1.446396931E1
6.099739083E0,6.593363639E0,-1.069092163E1,7.392324847E0,1.457445423E1
6.109674083E0,6.079315615E0,-1.167584651E1,6.470392016E0,1.466797338E1
6.119610083E0,5.127081928E0,-1.273878846E1,5.076764883E0,1.464026100E1
6.129545083E0,3.957095007E0,-1.372224335E1,3.407812246E0,1.468236179E1
6.139481083E0,2.775406930E0,-1.430662578E1,1.753801584E0,1.467849600E1
6.149416083E0,1.569325438E0,-1.458955150E1,2.984489036E-1,1.467674579E1
6.159352083E0,6.903427452E-1,-1.457145086E1,-1.082993801E0,1.462794000E1
6.169288083E0,9.474097341E-2,-1.426920594E1,-2.381590231E0,1.446689967E1
6.179223083E0,-5.945788014E-1,-1.369922871E1,-3.200624346E0,1.408070977E1
6.189159083E0,-1.105184423E0,-1.320184116E1,-3.804138277E0,1.378337806E1
6.199094083E0,-1.439464626E0,-1.263074595E1,-4.239648839E0,1.340083669E1
6.209030083E0,-1.987527657E0,-1.198745633E1,-4.551021844E0,1.297540656E1
6.218965083E0,-2.502920248E0,-1.142269248E1,-4.799115403E0,1.264017492E1
6.228901083E0,-3.158731092E0,-1.081011361E1,-4.959532303E0,1.230581566E1
6.238836083E0,-3.778096825E0,-1.011270334E1,-5.103819366E0,1.194109528E1
6.248772083E0,-4.123805849E0,-9.519116809E0,-5.231719607E0,1.161853044E1
6.258708083E0,-4.289764448E0,-9.084247686E0,-5.660765487E0,1.153125756E1
6.268643083E0,-4.434624245E0,-8.525379000E0,-6.455144232E0,1.157656540E1
6.278579083E0,-4.685162818E0,-8.158897743E0,-7.332010233E0,1.192798127E1
6.288514083E0,-5.008216805E0,-7.830628624E0,-8.108635077E0,1.233494803E1
6.298450083E0,-5.364715696E0,-7.357340956E0,-8.508301038E0,1.246201537E1
6.308385083E0,-5.579827743E0,-6.971014833E0,-8.879399841E0,1.259258778E1
6.318321083E0,-5.872112512E0,-6.672091720E0,-9.372347018E0,1.291663276E1
6.328256083E0,-6.338815046E0,-6.562289781E0,-9.814808750E0,1.340054828E1
6.338192083E0,-6.881631956E0,-6.637637587E0,-1.001025778E1,1.384270031E1
6.348127083E0,-7.305722905E0,-6.805026999E0,-9.957700667E0,1.410098515E1
6.358063083E0,-7.585972935E0,-6.908909217E0,-9.895252404E0,1.425468457E1
6.367999083E0,-7.644427550E0,-6.932249547E0,-1.002844964E1,1.438968931E1
6.377934083E0,-7.363600985E0,-7.120187829E0,-1.037789445E1,1.458150840E1
6.387870083E0,-6.823857372E0,-7.358196403E0,-1.062052466E1,1.461176334E1
6.397805083E0,-6.309246846E0,-7.648973760E0,-1.059432914E1,1.451045158E1
6.407741083E0,-5.846316351E0,-8.112448631E0,-1.036723965E1,1.440385003E1
6.417676083E0,-5.602991488E0,-8.632849070E0,-1.005759216E1,1.439009231E1
6.427612083E0,-5.513448397E0,-9.158928325E0,-9.860752662E0,1.454367644E1
6.437547083E0,-5.497481405E0,-9.697277961E0,-9.811576409E0,1.485013580E1
6.447483083E0,-5.412957564E0,-1.041585808E1,-9.663161797E0,1.520417394E1
6.457419083E0,-5.270985999E0,-1.117298129E1,-9.395799615E0,1.552094890E1
6.467354083E0,-4.915298116E0,-1.203029888E1,-8.968834759E0,1.579013121E1
6.477290083E0,-4.170122814E0,-1.299911118E1,-8.409119396E0,1.603371774E1
6.487225083E0,-3.170625790E0,-1.342376405E1,-6.957469758E0,1.544851755E1
6.497161083E0,-1.737124740E0,-1.319632841E1,-4.639334680E0,1.409553518E1
6.507096083E0,5.946641707E-1,-1.274799899E1,-2.246970370E0,1.295816267E1
6.517032083E0,2.704735142E0,-1.199355615E1,-2.776626366E-1,1.229788916E1
6.526967083E0,4.583971781E0,-1.105924827E1,7.821288282E-1,1.199714529E1
6.536903083E0,5.525998276E0,-1.049935164E1,5.692276132E-1,1.187842843E1
6.546839083E0,5.030922128E0,-1.039842285E1,-2.203213316E-1,1.155361055E1
6.556774083E0,4.343313248E0,-1.082600518E1,-3.357985783E-1,1.166959805E1
6.566710083E0,4.080336771E0,-1.085289886E1,3.123215396E0,1.200787393E1
6.576645083E0,4.779789478E0,-1.084943848E1,8.863440451E0,1.480261056E1
6.586581083E0,6.751819675E0,-1.022373845E1,1.341816475E1,1.817027909E1
6.596516083E0,8.094804658E0,-8.065176231E0,1.714857139E1,2.060695103E1
6.606452083E0,8.193020339E0,-5.491712542E0,1.999993570E1,2.229981877E1
6.616387083E0,8.476300396E0,-3.860851007E0,2.101637825E1,2.298786622E1
6.626323083E0,9.511210788E0,-2.967366342E0,2.014102668E1,2.247063304E1
6.636258083E0,1.044677933E1,-1.928480135E0,1.875066755E1,2.155091106E1
6.646194083E0,1.111151536E1,-8.536540166E-1,1.802168933E1,2.118904871E1
6.656130083E0,1.160530687E1,-3.012257463E-1,1.781395413E1,2.126289835E1
6.666065083E0,1.172140568E1,-4.922805941E-1,1.815182730E1,2.161301750E1
6.676001083E0,1.152529825E1,-6.703698260E-1,1.899133193E1,2.222504407E1
6.685936083E0,1.155561256E1,-7.405586332E-1,2.003383786E1,2.313947424E1
6.695872083E0,1.166315572E1,-8.929011127E-1,2.130556282E1,2.430542081E1
6.705807083E0,1.164668528E1,-1.321643523E0,2.117708780E1,2.420456708E1
6.715743083E0,1.135986064E1,-2.172864220E0,1.929069651E1,2.249219297E1
6.725678083E0,1.054967629E1,-3.455753860E0,1.676334045E1,2.010590679E1
6.735614083E0,9.799294918E0,-4.729867705E0,1.431033993E1,1.797730954E1
6.745550083E0,9.170016984E0,-5.986871136E0,1.222392007E1,1.641207054E1
6.755485083E0,8.366392622E0,-7.363441941E0,1.072784446E1,1.546943598E1
6.765421083E0,7.608903961E0,-8.577527978E0,1.002312165E1,1.522932610E1
6.775356083E0,7.172401711E0,-9.797250731E0,1.002545820E1,1.574608778E1
6.785292083E0,6.689211198E0,-1.143572242E1,9.828930945E0,1.649633830E1
6.795227083E0,6.031084857E0,-1.339859061E1,9.219451684E0,1.734631097E1
6.805163083E0,5.056025394E0,-1.521063222E1,8.642881138E0,1.821060459E1
6.815098083E0,4.085900397E0,-1.677303514E1,7.669817330E0,1.889061639E1
6.825034083E0,3.338866265E0,-1.794757119E1,5.821352248E0,1.916119729E1
6.834969083E0,2.565955572E0,-1.856495063E1,3.110103015E0,1.899774356E1
6.844905083E0,1.502299390E0,-1.844440326E1,1.586232662E-2,1.850549018E1
6.854841083E0,1.433585250E-1,-1.759126409E1,-2.716478398E0,1.780034772E1
6.864776083E0,-5.337145489E-1,-1.659502835E1,-4.252439039E0,1.713951735E1
6.874712083E0,-8.598830554E-1,-1.547598705E1,-4.914771867E0,1.626039841E1
6.884647083E0,-1.707214770E0,-1.424199066E1,-5.497265643E0,1.536127631E1
6.894583083E0,-2.656560225E0,-1.328886644E1,-6.292861193E0,1.494159916E1
6.904518083E0,-3.651156697E0,-1.255979817E1,-6.786135814E0,1.473536951E1
6.914454083E0,-4.361121821E0,-1.186270482E1,-6.796881242E0,1.435063566E1
6.924389208E0,-4.767064767E0,-1.102076891E1,-6.400296764E0,1.360683845E1
6.934325208E0,-5.229649107E0,-1.012898900E1,-6.116529050E0,1.293667560E1
6.944261208E0,-5.863465065E0,-9.509111638E0,-6.314846140E0,1.283279815E1
6.954196208E0,-6.671369004E0,-9.225756152E0,-6.934460964E0,1.333073478E1
6.964132208E0,-7.906989167E0,-9.073392330E0,-7.829239910E0,1.435771304E1
6.974067208E0,-9.256768030E0,-8.816214244E0,-8.812648612E0,1.552662756E1
6.984003208E0,-1.047639197E1,-8.490136662E0,-9.689383051E0,1.660485932E1
6.993938208E0,-1.127384576E1,-8.240497391E0,-1.027459286E1,1.733703129E1
7.003874208E0,-1.140374283E1,-8.011652573E0,-1.071118340E1,1.757729721E1
7.013809208E0,-1.113787461E1,-7.755332859E0,-1.093758408E1,1.743066792E1
7.023745208E0,-1.073061253E1,-7.706370614E0,-1.092271461E1,1.714175860E1
7.033680208E0,-1.009001263E1,-7.841001585E0,-1.062214200E1,1.661684571E1
7.043616208E0,-9.353726560E0,-8.012768807E0,-1.020281712E1,1.599356563E1
7.053552208E0,-8.677044080E0,-8.245135403E0,-9.722592312E0,1.542083503E1
7.063487208E0,-8.139468030E0,-8.529846858E0,-9.125462371E0,1.490916801E1
7.073423208E0,-7.707779208E0,-8.864490611E0,-8.563560734E0,1.453697446E1
7.083358208E0,-7.281449944E0,-9.247596087E0,-8.062843192E0,1.426698942E1
7.093294208E0,-6.974969305E0,-9.703438003E0,-7.710251995E0,1.422163464E1
7.103229208E0,-6.786928112E0,-1.019108994E1,-7.516729038E0,1.436739095E1
7.113165208E0,-6.559045746E0,-1.079546166E1,-7.614197445E0,1.474920595E1
7.123100208E0,-6.138200001E0,-1.148602134E1,-7.727995371E0,1.514358273E1
7.133036208E0,-5.344811189E0,-1.217334283E1,-7.442970505E0,1.523663651E1
7.142972208E0,-4.277763330E0,-1.281702888E1,-6.796995848E0,1.512529805E1
7.152907208E0,-2.984577913E0,-1.326573836E1,-6.129722123E0,1.491512698E1
7.162843208E0,-1.014371463E0,-1.376119283E1,-6.003332802E0,1.504790292E1
7.172778208E0,1.393219582E0,-1.385461262E1,-5.449799116E0,1.495298171E1
7.182714208E0,4.255007428E0,-1.354728063E1,-3.968088357E0,1.474379957E1
7.192649208E0,6.844232579E0,-1.282653646E1,-1.679134979E0,1.463499407E1
7.202585208E0,8.293277868E0,-1.167251126E1,2.031481177E0,1.446211923E1
7.212520208E0,9.267034571E0,-1.066194517E1,6.295126989E0,1.546556266E1
7.222456208E0,9.676450179E0,-9.673090954E0,9.768675388E0,1.681158516E1
7.232392208E0,8.938640907E0,-8.369736645E0,1.176118780E1,1.697873173E1
7.242327208E0,7.471885571E0,-7.294736572E0,1.219823325E1,1.605737059E1
7.252263208E0,6.230855564E0,-6.886903220E0,1.147740137E1,1.476427239E1
7.262198208E0,5.217714940E0,-6.022245621E0,1.142331463E1,1.392781780E1
7.272134208E0,5.313975897E0,-4.954033581E0,1.226798937E1,1.425778214E1
7.282069208E0,6.302436594E0,-4.119928268E0,1.307383859E1,1.508707299E1
7.292005208E0,7.144571303E0,-2.970356315E0,1.373495988E1,1.576442319E1
7.301940208E0,8.022466414E0,-2.000944093E0,1.444477678E1,1.664377724E1
7.311876208E0,9.128219333E0,-1.538388112E0,1.486620081E1,1.751270832E1
7.321811208E0,1.011141227E1,-1.095285526E0,1.523086241E1,1.831446091E1
7.331747208E0,1.100240398E1,-5.929526907E-1,1.592363819E1,1.936405792E1
7.341683208E0,1.167611315E1,-3.982977122E-2,1.670821057E1,2.038375591E1
7.351618208E0,1.167680897E1,5.043369681E-2,1.725695772E1,2.083633847E1
7.361554208E0,1.127687579E1,-3.018072519E-1,1.764671558E1,2.094434496E1
7.371489208E0,1.104880514E1,-1.076041754E0,1.764879134E1,2.084979128E1
7.381425208E0,1.118885297E1,-1.976620846E0,1.697553357E1,2.042709477E1
7.391360208E0,1.192487826E1,-2.794428507E0,1.542578052E1,1.969685906E1
7.401296208E0,1.187450684E1,-3.616056154E0,1.301220660E1,1.798325041E1
7.411231208E0,1.119070888E1,-4.618789319E0,1.083904797E1,1.624961972E1
7.421167208E0,1.039716570E1,-5.626606053E0,1.006224070E1,1.552444647E1
7.431103208E0,9.889084761E0,-6.803035437E0,1.055325478E1,1.598269299E1
7.441038208E0,9.409327734E0,-8.093618258E0,1.130999910E1,1.679161054E1
7.450974208E0,8.809570053E0,-9.606533267E0,1.143736665E1,1.734091583E1
7.460909208E0,8.337927791E0,-1.151286941E1,1.090776211E1,1.791776985E1
7.470845208E0,7.502909728E0,-1.332021453E1,9.962383118E0,1.824748879E1
7.480780208E0,6.298570415E0,-1.508558834E1,8.645626405E0,1.849307494E1
7.490716208E0,5.245676326E0,-1.686325651E1,7.052903334E0,1.901657134E1
7.500651208E0,4.298941068E0,-1.821873114E1,5.582834381E0,1.953384495E1
7.510587208E0,3.149149260E0,-1.894861802E1,4.142818948E0,1.965019630E1
7.520523208E0,1.945320116E0,-1.929323420E1,2.744245656E0,1.958428044E1
7.530458208E0,6.794955754E-1,-1.956478123E1,1.598096663E0,1.964169779E1
7.540394208E0,-4.985078788E-1,-1.971611185E1,4.714960814E-1,1.972804819E1
7.550329208E0,-1.601804382E0,-1.948367568E1,-9.538510269E-1,1.957266530E1
7.560265208E0,-2.779992024E0,-1.861281360E1,-2.594731474E0,1.899731078E1
7.570200208E0,-3.906198503E0,-1.741987986E1,-4.175017226E0,1.833415856E1
7.580136208E0,-4.896522122E0,-1.644900233E1,-5.574276981E0,1.804489319E1
7.590071208E0,-5.874820942E0,-1.548880883E1,-7.043633743E0,1.800081932E1
7.600007208E0,-6.625401703E0,-1.421677162E1,-8.575279723E0,1.787590460E1
7.609942208E0,-7.095257640E0,-1.262046070E1,-9.355939731E0,1.723810655E1
7.619878208E0,-7.388825873E0,-1.122336675E1,-9.094546972E0,1.622558146E1
7.629814208E0,-7.576440804E0,-1.028198959E1,-8.282672773E0,1.522249761E1
7.639749208E0,-7.685073300E0,-9.683852754E0,-7.567477607E0,1.449496717E1
7.649685208E0,-7.870092652E0,-9.200766907E0,-7.223346162E0,1.409855311E1
7.659620208E0,-8.169859518E0,-8.822700561E0,-7.090575190E0,1.395933044E1
7.669556208E0,-8.639300888E0,-8.670121561E0,-7.299509069E0,1.425101261E1
7.679491208E0,-9.038247056E0,-8.533932307E0,-7.794784607E0,1.467230648E1
7.689427208E0,-9.374297649E0,-8.331429196E0,-8.184607365E0,1.497591288E1
7.699362208E0,-9.637749213E0,-8.115442405E0,-8.644111977E0,1.527963636E1
7.709298208E0,-9.872359385E0,-8.002103485E0,-9.272706370E0,1.573150417E1
7.719234208E0,-9.886135426E0,-7.989682245E0,-9.809779560E0,1.605622842E1
7.729169208E0,-9.666463720E0,-8.064264650E0,-9.811934259E0,1.596079381E1
7.739105208E0,-9.203457795E0,-8.238190080E0,-9.475372034E0,1.556772579E1
7.749040208E0,-8.626636403E0,-8.485227925E0,-8.910697063E0,1.502725759E1
7.758976208E0,-8.044739043E0,-8.952391804E0,-8.461200546E0,1.471241177E1
7.768911208E0,-7.454205346E0,-9.430764211E0,-8.201906937E0,1.455251759E1
7.778847208E0,-6.930796514E0,-9.884552000E0,-7.963711837E0,1.446240004E1
7.788782208E0,-6.352991620E0,-1.044724009E1,-7.761344966E0,1.448253443E1
7.798718208E0,-5.779399061E0,-1.095788094E1,-7.730312623E0,1.460254572E1
7.808653208E0,-5.257733869E0,-1.143973595E1,-7.874420761E0,1.484984264E1
7.818589208E0,-4.844584814E0,-1.213516285E1,-8.037694318E0,1.534068803E1
7.828525208E0,-4.370014851E0,-1.295993717E1,-8.029632177E0,1.585976022E1
7.838460208E0,-3.366164868E0,-1.351237977E1,-7.428768788E0,1.578296799E1
7.848396208E0,-1.474573063E0,-1.369966842E1,-6.289742873E0,1.514648956E1
7.858331208E0,1.060511549E0,-1.368859380E1,-5.293462695E0,1.471472162E1
7.868267208E0,3.917300611E0,-1.350702606E1,-4.499427182E0,1.476583360E1
7.878202208E0,5.966945579E0,-1.314182183E1,-3.921794196E0,1.495634950E1
7.888138208E0,7.019373060E0,-1.330253489E1,-3.449277776E0,1.543134958E1
7.898073208E0,7.429826549E0,-1.348288875E1,-3.124026990E-1,1.539766888E1
7.908009208E0,8.086164812E0,-1.327168031E1,5.406624445E0,1.645463908E1
7.917944208E0,9.500660657E0,-1.241730036E1,1.118492481E1,1.922379890E1
7.927879625E0,1.064224473E1,-1.053347833E1,1.692194852E1,2.259566065E1
7.937815625E0,1.088697292E1,-7.787878461E0,2.261082742E1,2.627597281E1
7.947750625E0,1.084259490E1,-5.104782402E0,2.585315527E1,2.849572433E1
7.957686625E0,1.018762371E1,-3.274763239E0,2.531245155E1,2.748148385E1
7.967621625E0,9.392930387E0,-1.904511667E0,2.200414605E1,2.400076560E1
7.977557625E0,8.847358854E0,-1.409411984E0,1.810772526E1,2.020276998E1
7.987492625E0,8.753505780E0,-1.446468713E0,1.476647070E1,1.722686252E1
7.997428625E0,8.897144387E0,-1.019896497E0,1.261252953E1,1.546852508E1
8.007363625E0,9.283576344E0,-4.877242975E-1,1.166283880E1,1.491457252E1
8.017299625E0,9.841944509E0,4.474026293E-2,1.184866214E1,1.540313825E1
8.027235625E0,1.088774008E1,5.918846968E-1,1.301637450E1,1.697996515E1
8.037170625E0,1.142993601E1,1.175919653E0,1.470701036E1,1.866339675E1
8.047106625E0,1.171360082E1,1.110481854E0,1.601190425E1,1.987014574E1
8.057041625E0,1.185444621E1,3.038276111E-1,1.633670187E1,2.018682824E1
8.066977625E0,1.201330102E1,-1.221724109E0,1.553448727E1,1.967567804E1
8.076912625E0,1.123364264E1,-2.875714452E0,1.405654505E1,1.822226438E1
8.086848625E0,1.006721200E1,-4.624828323E0,1.200670770E1,1.633703842E1
8.096783625E0,9.067500676E0,-6.060941910E0,1.060361685E1,1.521155073E1
8.106719625E0,8.242488953E0,-7.251754274E0,1.026987766E1,1.503319498E1
8.116655625E0,7.795114390E0,-8.640955650E0,1.038061106E1,1.559445443E1
8.126590625E0,7.644932749E0,-1.021048516E1,1.037126604E1,1.643965216E1
8.136526625E0,7.217737513E0,-1.174862213E1,1.005767870E1,1.706700787E1
8.146461625E0,6.671128099E0,-1.349148182E1,9.279035397E0,1.768119141E1
8.156397625E0,5.949715589E0,-1.493958337E1,8.275467834E0,1.808517721E1
8.166332625E0,5.130083304E0,-1.605404045E1,7.272154040E0,1.835576732E1
8.176268625E0,4.332593840E0,-1.700613790E1,6.043566324E0,1.856084022E1
8.186203625E0,3.134488536E0,-1.782709516E1,4.226014302E0,1.858734885E1
8.196139625E0,1.599399715E0,-1.835810070E1,1.946797122E0,1.853019049E1
8.206074625E0,-3.340889986E-1,-1.837201941E1,-5.074652284E-1,1.838206282E1
8.216010625E0,-2.189700255E0,-1.785100560E1,-2.657063378E0,1.818002128E1
8.225946625E0,-3.560680098E0,-1.682727391E1,-4.317620583E0,1.773351171E1
8.235881625E0,-4.277775024E0,-1.547474744E1,-5.663844046E0,1.702487289E1
8.245817625E0,-4.910284129E0,-1.421852929E1,-6.840884464E0,1.652498610E1
8.255752625E0,-5.502315883E0,-1.309668483E1,-7.620197858E0,1.612036132E1
8.265688625E0,-6.114215891E0,-1.191713304E1,-7.741514719E0,1.547038286E1
8.275623625E0,-6.821843006E0,-1.098499565E1,-7.504817090E0,1.495091806E1
8.285559625E0,-7.489593864E0,-1.017984692E1,-7.205618573E0,1.454799775E1
8.295494625E0,-8.133899142E0,-9.601181896E0,-6.994011347E0,1.439649971E1
8.305430625E0,-8.853394350E0,-9.276296561E0,-7.078407719E0,1.464705176E1
8.315365625E0,-9.496658823E0,-9.068722744E0,-7.750253967E0,1.524777681E1
8.325301625E0,-1.005917442E1,-8.866454691E0,-8.754231420E0,1.601366843E1
8.335237625E0,-1.036482358E1,-8.661987500E0,-9.591642748E0,1.656681037E1
8.345172625E0,-1.030278696E1,-8.436644579E0,-1.010268472E1,1.671492236E1
8.355108625E0,-9.913509750E0,-8.271482372E0,-1.019692897E1,1.645212620E1
8.365043625E0,-9.505303931E0,-8.169703982E0,-9.965868058E0,1.601291329E1
8.374979625E0,-8.963605594E0,-8.163394251E0,-9.656206534E0,1.549934049E1
8.384914625E0,-8.472778033E0,-8.137410395E0,-9.352522618E0,1.501582814E1
8.394850625E0,-7.912508354E0,-8.219517581E0,-8.959426004E0,1.450653549E1
8.404785625E0,-7.349510949E0,-8.469497745E0,-8.675844231E0,1.417808084E1
8.414721625E0,-6.921038096E0,-8.850734451E0,-8.531101670E0,1.410730181E1
8.424657625E0,-6.596295433E0,-9.290585402E0,-8.491189746E0,1.421008071E1
8.434592625E0,-6.315544882E0,-9.743246432E0,-8.604021127E0,1.445150988E1
8.444528625E0,-6.026981866E0,-1.030622630E1,-8.731484581E0,1.479126884E1
8.454463625E0,-5.556970977E0,-1.098053773E1,-8.793654517E0,1.512549156E1
8.464399625E0,-5.204059353E0,-1.147288966E1,-8.512929693E0,1.520458493E1
8.474334625E0,-4.529619865E0,-1.186808659E1,-8.037745773E0,1.503244134E1
8.484270625E0,-3.184574323E0,-1.227843717E1,-7.177944286E0,1.457478704E1
8.494205625E0,-1.646232696E0,-1.239661057E1,-5.572446218E0,1.369080686E1
8.504141625E0,5.020477831E-1,-1.235632442E1,-3.874694290E0,1.295932333E1
8.514076625E0,3.266405814E0,-1.207013479E1,-2.529598462E0,1.275760280E1
8.524012625E0,5.118001202E0,-1.117682876E1,-1.221923060E0,1.235348264E1
8.533948625E0,6.035314733E0,-1.131037566E1,-7.786737084E-1,1.284351798E1
8.543883625E0,5.804258498E0,-1.222194020E1,-9.487534243E-1,1.356338351E1
8.553819625E0,5.115179921E0,-1.256557522E1,-5.426882708E-1,1.357767494E1
8.563754625E0,5.123273052E0,-1.255555426E1,1.220156617E0,1.361538291E1
8.573690625E0,5.642069015E0,-1.213418402E1,6.758652146E0,1.499168915E1
8.583625625E0,6.427075258E0,-1.125156202E1,1.370883452E1,1.886364462E1
8.593561625E0,8.166990874E0,-1.010486456E1,1.853124143E1,2.263216597E1
8.603496625E0,9.373802390E0,-7.368251860E0,2.133152680E1,2.443753961E1
8.613432625E0,8.610034989E0,-4.586032924E0,2.165976376E1,2.375520504E1
8.623368625E0,8.230729617E0,-3.360744791E0,1.943896903E1,2.137552415E1
8.633303625E0,8.319369314E0,-2.208574628E0,1.690452966E1,1.896978731E1
8.643239625E0,8.847755295E0,-9.195062363E-1,1.507554166E1,1.750429152E1
8.653174625E0,9.839292212E0,-1.313588691E-1,1.410957929E1,1.720201018E1
8.663110625E0,1.077502447E1,3.827666304E-1,1.379224037E1,1.750638618E1
8.673045625E0,1.175874717E1,6.946047807E-1,1.401673486E1,1.830899962E1
8.682981625E0,1.227975747E1,9.067908812E-1,1.505530912E1,1.944934564E1
8.692916625E0,1.242307273E1,7.974947262E-1,1.696702470E1,2.104396971E1
8.702852625E0,1.251191181E1,1.048040316E-1,1.863758708E1,2.244813073E1
8.712788625E0,1.238327073E1,-7.992825124E-1,1.915434996E1,2.282265035E1
8.722723625E0,1.188180533E1,-2.103498994E0,1.848590914E1,2.207557117E1
8.732659625E0,1.106497737E1,-3.666117675E0,1.675806159E1,2.041339686E1
8.742594625E0,1.023038791E1,-5.262245581E0,1.462392026E1,1.860674902E1
8.752530625E0,9.603697368E0,-6.877952303E0,1.262491978E1,1.728947167E1
8.762465625E0,9.145508965E0,-8.348666788E0,1.143669539E1,1.685641044E1
8.772401625E0,8.809691091E0,-9.938266861E0,1.099998557E1,1.724469448E1
8.782336625E0,8.621276261E0,-1.162336892E1,1.112125214E1,1.825133855E1
8.792272625E0,8.009307840E0,-1.321365254E1,1.115488416E1,1.905731004E1
8.802207625E0,7.463895351E0,-1.493856712E1,1.061527503E1,1.978773826E1
8.812143625E0,6.742117975E0,-1.654826115E1,9.361104577E0,2.017254027E1
8.822079625E0,5.881150553E0,-1.791294515E1,7.429829473E0,2.026484399E1
8.832014625E0,5.209238816E0,-1.905948825E1,4.974135139E0,2.037504065E1
8.841950625E0,4.277144402E0,-1.991427633E1,2.395384398E0,2.050878427E1
8.851885625E0,3.376679916E0,-2.027294454E1,-6.156357944E-2,2.055232438E1
8.861821625E0,2.012973132E0,-2.009878873E1,-2.252082298E0,2.032449861E1
8.871756625E0,4.704444596E-1,-1.964352920E1,-4.221203213E0,2.009746536E1
8.881692625E0,-7.138201931E-1,-1.876598141E1,-5.560305644E0,1.958541795E1
8.891627625E0,-1.895635740E0,-1.756779921E1,-6.191156479E0,1.872301852E1
8.901563625E0,-3.091566757E0,-1.636859259E1,-6.391668028E0,1.784214192E1
8.911498625E0,-3.695691723E0,-1.534887209E1,-5.779690252E0,1.681222267E1
8.921434625E0,-4.422766677E0,-1.438479136E1,-4.557118735E0,1.572419851E1
8.931371500E0,-5.757942703E0,-1.339641662E1,-3.830274162E0,1.507610303E1
8.941306500E0,-7.229897967E0,-1.271407345E1,-4.782079833E0,1.538789706E1
8.951242500E0,-8.405047395E0,-1.202018437E1,-6.683158160E0,1.611813441E1
8.961177500E0,-9.242345288E0,-1.112434883E1,-8.582497526E0,1.681759041E1
8.971113500E0,-9.659616630E0,-1.049310448E1,-1.017689875E1,1.752092187E1
8.981048500E0,-9.914075761E0,-1.005575497E1,-1.106706483E1,1.794121038E1
8.990984500E0,-1.009026055E1,-9.590021315E0,-1.133327452E1,1.795062612E1
9.000919500E0,-1.051485612E1,-9.222176487E0,-1.121781774E1,1.792903158E1
9.010855500E0,-1.099135508E1,-9.091988230E0,-1.063236410E1,1.779104558E1
9.020791500E0,-1.135875318E1,-9.220718776E0,-9.749667259E0,1.758120986E1
9.030726500E0,-1.149142182E1,-9.452271439E0,-8.591952474E0,1.718196317E1
9.040662500E0,-1.124239476E1,-9.659930041E0,-7.489968671E0,1.660738748E1
9.050597500E0,-1.064912222E1,-9.794915353E0,-6.682053037E0,1.593718933E1
9.060533500E0,-9.906465025E0,-9.926185344E0,-6.128623431E0,1.530448398E1
9.070468500E0,-9.177808984E0,-1.007707742E1,-6.025092630E0,1.490239606E1
9.080404500E0,-8.463438275E0,-1.033362518E1,-6.430236263E0,1.482435615E1
9.090339500E0,-7.630808800E0,-1.070040231E1,-6.992219176E0,1.488687279E1
9.100275500E0,-6.833435111E0,-1.101519067E1,-7.338722836E0,1.489587573E1
9.110210500E0,-6.074760634E0,-1.138682332E1,-7.393545746E0,1.487370098E1
9.120146500E0,-5.267758920E0,-1.194338353E1,-7.137393261E0,1.487736794E1
9.130082500E0,-4.327834207E0,-1.263241006E1,-6.466814690E0,1.483669860E1
9.140017500E0,-3.250267499E0,-1.325386384E1,-5.099996456E0,1.456842851E1
9.149953500E0,-2.194043566E0,-1.383402575E1,-3.586339434E0,1.445876641E1
9.159888500E0,-1.087904293E0,-1.428582607E1,-2.491243651E0,1.454216824E1
9.169824500E0,3.272017094E-1,-1.433539525E1,-1.890721740E0,1.446324468E1
9.179759500E0,2.636987840E0,-1.397923550E1,-1.728798305E0,1.433043871E1
9.189695500E0,5.311302550E0,-1.291503991E1,-1.619322056E0,1.405810779E1
9.199630500E0,6.542244941E0,-1.173451163E1,-5.653058857E-1,1.344690681E1
9.209566500E0,6.537002327E0,-1.177867799E1,6.162485826E-1,1.348515543E1
9.219501500E0,5.939897529E0,-1.243081444E1,1.319052914E0,1.384006615E1
9.229437500E0,5.077572969E0,-1.243900405E1,3.003358001E0,1.376701596E1
9.239373500E0,5.055228419E0,-1.224153188E1,4.975876440E0,1.414813711E1
9.249308500E0,6.200221417E0,-1.115044495E1,7.300369195E0,1.469933871E1
9.259244500E0,6.927353089E0,-8.870220882E0,1.021672063E1,1.520034275E1
9.269179500E0,7.409862401E0,-7.591947620E0,1.260624611E1,1.647607874E1
9.279115500E0,8.565131296E0,-6.607584068E0,1.475242218E1,1.829359455E1
9.289050500E0,9.980322375E0,-4.946347416E0,1.757694543E1,2.080918543E1
9.298986500E0,1.156706608E1,-3.005167714E0,2.069035621E1,2.389390908E1
9.308921500E0,1.304331730E1,-1.117613411E0,2.285702794E1,2.634048048E1
9.318857500E0,1.391623994E1,2.895728302E-1,2.410550438E1,2.783560539E1
9.328793500E0,1.446705584E1,2.943070284E-1,2.361363192E1,2.769451089E1
9.338728500E0,1.522993154E1,-3.031108886E-1,2.157884297E1,2.641380614E1
9.348664500E0,1.529132964E1,-7.476176843E-1,1.918966364E1,2.454845993E1
9.358599500E0,1.445720913E1,-1.292781666E0,1.712480948E1,2.244863648E1
9.368535500E0,1.334944827E1,-1.755894010E0,1.541823293E1,2.046980312E1
9.378470500E0,1.202079131E1,-2.142706621E0,1.375825986E1,1.839511701E1
9.388406500E0,1.097174469E1,-2.722724686E0,1.245187260E1,1.681789352E1
9.398341500E0,1.025612267E1,-3.458960180E0,1.247474457E1,1.651580183E1
9.408277500E0,9.701079821E0,-4.203168938E0,1.269032907E1,1.651732517E1
9.418212500E0,9.088054808E0,-5.246382669E0,1.225124645E1,1.613103564E1
9.428148500E0,8.339596587E0,-6.690868884E0,1.143216029E1,1.565282360E1
9.438084500E0,7.951039751E0,-8.188004013E0,1.074448329E1,1.567502358E1
9.448019500E0,7.719943171E0,-9.588670024E0,1.010560716E1,1.592681423E1
9.457955500E0,7.212383802E0,-1.092706143E1,9.585699053E0,1.622666873E1
9.467890500E0,6.802588125E0,-1.240920430E1,8.858187897E0,1.669524032E1
9.477826500E0,6.307557001E0,-1.380030251E1,7.917091987E0,1.711472963E1
9.487761500E0,5.651505836E0,-1.504261482E1,6.965169371E0,1.751380493E1
9.497697500E0,4.946404134E0,-1.613661717E1,5.970645697E0,1.790267962E1
9.507632500E0,4.173120097E0,-1.693586255E1,4.817464843E0,1.809547842E1
9.517568500E0,3.156686321E0,-1.750389733E1,3.903454989E0,1.820955934E1
9.527504500E0,1.948830345E0,-1.802407967E1,3.080553526E0,1.838899665E1
9.537439500E0,8.587159511E-1,-1.829902394E1,1.919328073E0,1.841943241E1
9.547375500E0,-3.724519958E-1,-1.813731451E1,5.034455600E-1,1.814812265E1
9.557310500E0,-1.618726517E0,-1.771760956E1,-1.236410122E0,1.783431170E1
9.567246500E0,-2.588378182E0,-1.683706449E1,-3.060285030E0,1.730756443E1
9.577181500E0,-3.361929145E0,-1.542488472E1,-4.498940109E0,1.641554442E1
9.587117500E0,-3.901231001E0,-1.422157452E1,-5.240512065E0,1.565042338E1
9.597052500E0,-4.420552044E0,-1.339266037E1,-5.438288287E0,1.511554205E1
9.606988500E0,-4.918148049E0,-1.280950235E1,-5.502375525E0,1.478335777E1
9.616923500E0,-5.563970094E0,-1.224150382E1,-5.779199086E0,1.463595986E1
9.626859500E0,-6.352960045E0,-1.166744173E1,-6.259658364E0,1.468579656E1
9.636795500E0,-7.252140191E0,-1.114732605E1,-6.775574573E0,1.492530824E1
9.646730500E0,-8.239254858E0,-1.046595936E1,-7.109352354E0,1.509849386E1
9.656666500E0,-9.252993652E0,-9.918575778E0,-7.246911610E0,1.537900403E1
9.666601500E0,-1.003828232E1,-9.703404089E0,-7.337851017E0,1.577235621E1
9.676537500E0,-1.048733444E1,-9.460732945E0,-7.293434397E0,1.589603211E1
9.686472500E0,-1.068835119E1,-9.186469880E0,-7.291073876E0,1.586795004E1
9.696408500E0,-1.079280468E1,-8.984195395E0,-7.523997712E0,1.593144505E1
9.706343500E0,-1.085867825E1,-8.894975070E0,-7.931097237E0,1.612246191E1
9.716279500E0,-1.083112734E1,-8.961123451E0,-8.493378943E0,1.642414499E1
9.726214500E0,-1.045564254E1,-8.931602029E0,-8.923080297E0,1.639253908E1
9.736150500E0,-9.831465129E0,-8.836281888E0,-8.983503669E0,1.598251927E1
9.746086500E0,-9.091050922E0,-8.923790733E0,-8.905748565E0,1.554328168E1
9.756021500E0,-8.397251303E0,-9.131084468E0,-8.699120827E0,1.515141037E1
9.765957500E0,-7.846029021E0,-9.486281185E0,-8.397233761E0,1.490178637E1
9.775892500E0,-7.312655949E0,-1.001007769E1,-8.014663305E0,1.476182306E1
9.785828500E0,-6.851419977E0,-1.051154426E1,-7.499693760E0,1.461779480E1
9.795763500E0,-6.393341501E0,-1.108878372E1,-7.013500117E0,1.459538023E1
9.805699500E0,-5.885270501E0,-1.167026359E1,-6.613952855E0,1.464840720E1
9.815634500E0,-5.144989611E0,-1.228602686E1,-6.255406269E0,1.471555237E1
9.825570500E0,-4.240190876E0,-1.287540514E1,-5.823147343E0,1.475345117E1
9.835506500E0,-3.144185558E0,-1.320968579E1,-5.000665126E0,1.447025753E1
9.845441500E0,-1.562256593E0,-1.342976329E1,-4.026031340E0,1.410702364E1
9.855377500E0,7.739286929E-1,-1.352564827E1,-3.298579826E0,1.394355606E1
9.865312500E0,2.733516307E0,-1.317569007E1,-2.829524957E0,1.375053206E1
9.875248500E0,3.997927575E0,-1.288918820E1,-2.749130419E0,1.377215725E1
9.885183500E0,4.816747097E0,-1.302529969E1,-2.874958407E0,1.418185003E1
9.895119500E0,4.863202641E0,-1.289659312E1,-2.333621428E0,1.397922183E1
9.905054500E0,5.052559165E0,-1.269884028E1,-3.333895254E-1,1.367113921E1
9.914990500E0,6.165619934E0,-1.229045437E1,2.741524946E0,1.402091640E1
9.924925500E0,7.959864954E0,-1.080123286E1,6.065237859E0,1.472457781E1
9.934860500E0,1.000827557E1,-8.279945047E0,8.967703907E0,1.578425745E1
9.944796500E0,1.177603154E1,-5.989035775E0,1.130879340E1,1.739058011E1
9.954731500E0,1.280650272E1,-4.648039723E0,1.406509251E1,1.958156308E1
9.964667500E0,1.396478586E1,-3.578231393E0,1.748472665E1,2.266130292E1
9.974602500E0,1.516667168E1,-2.196957380E0,2.150088555E1,2.640345870E1
9.984538500E0,1.583724441E1,-9.899005732E-1,2.569922148E1,3.020344679E1
9.994473500E0,1.642739686E1,-9.919678563E-1,2.826011014E1,3.270286216E1
1.000440950E1,1.700925096E1,-1.989613944E0,2.847293476E1,3.322621248E1
1.001434450E1,1.655409316E1,-3.412315772E0,2.719314999E1,3.201795287E1
1.002428050E1,1.518848180E1,-5.253167194E0,2.433780022E1,2.916529212E1
1.003421550E1,1.264025703E1,-6.782874237E0,2.116502616E1,2.556837526E1
1.004415150E1,9.769012188E0,-7.976036013E0,1.847128876E1,2.236602911E1
1.005408750E1,7.474948343E0,-8.281950057E0,1.654002593E1,1.995088989E1
1.006402250E1,6.238097926E0,-7.957397429E0,1.505984071E1,1.813926244E1
1.007395850E1,5.703006942E0,-7.660646557E0,1.385113704E1,1.682449973E1
1.008389350E1,5.467895663E0,-7.650450182E0,1.276696736E1,1.585631504E1
1.009382950E1,5.627783682E0,-8.024336354E0,1.131665673E1,1.497092658E1
1.010376450E1,5.891697761E0,-8.928911140E0,9.380920790E0,1.422811412E1
1.011370050E1,5.796229101E0,-1.008713463E1,7.456908513E0,1.381853977E1
1.012363550E1,5.339067469E0,-1.110404145E1,5.582648440E0,1.352668997E1
1.013357150E1,4.888476646E0,-1.189167309E1,4.297372552E0,1.355641928E1
1.014350650E1,4.389331128E0,-1.244043077E1,3.772638157E0,1.372090902E1
1.015344250E1,3.940101536E0,-1.297216019E1,3.536153952E0,1.401091449E1
1.016337850E1,3.394502521E0,-1.350159750E1,3.348853016E0,1.431888959E1
1.017331350E1,2.523349835E0,-1.422288430E1,2.727785159E0,1.470029061E1
1.018324950E1,1.667631897E0,-1.500338701E1,1.555569279E0,1.517571790E1
1.019318450E1,1.124859427E0,-1.546930017E1,4.496883059E-1,1.551666125E1
1.020312050E1,1.035966838E0,-1.550113008E1,-4.551946288E-1,1.554237637E1
1.021305550E1,3.000596653E-1,-1.530316441E1,-1.413915509E0,1.537127300E1
1.022299150E1,-8.115326484E-1,-1.505350467E1,-2.199383682E0,1.523495575E1
1.023292650E1,-1.839772611E0,-1.458002521E1,-2.602924300E0,1.492437983E1
1.024286250E1,-2.494513414E0,-1.405286598E1,-2.786308771E0,1.454197909E1
1.025279850E1,-2.757119470E0,-1.345452040E1,-3.028664165E0,1.406409022E1
1.026273350E1,-3.024851196E0,-1.278601759E1,-3.249101856E0,1.353471955E1
1.027266950E1,-3.809011054E0,-1.223020349E1,-3.788201106E0,1.335802793E1
1.028260450E1,-4.866786399E0,-1.160593019E1,-4.754044188E0,1.345303540E1
1.029254050E1,-5.945126694E0,-1.102555193E1,-5.815521989E0,1.381041719E1
1.030247550E1,-6.887492620E0,-1.038605014E1,-6.818110728E0,1.420542946E1
1.031241150E1,-7.502916745E0,-9.574059586E0,-7.570523422E0,1.432721890E1
1.032234650E1,-8.044445513E0,-8.773019108E0,-8.164107027E0,1.443369708E1
1.033228250E1,-8.449268718E0,-8.242467903E0,-8.943676529E0,1.480938111E1
1.034221750E1,-8.595245626E0,-7.880370303E0,-9.823015902E0,1.524697101E1
1.035215350E1,-8.623928558E0,-7.544760005E0,-1.034875193E1,1.543995511E1
1.036208950E1,-8.490716121E0,-7.282202480E0,-1.015979915E1,1.511106389E1
1.037202450E1,-8.143605520E0,-7.210267695E0,-9.385695627E0,1.436654285E1
1.038196050E1,-7.807927979E0,-7.188112594E0,-8.391626866E0,1.352967492E1
1.039189550E1,-7.547381312E0,-7.115352767E0,-7.525360698E0,1.281492346E1
1.040183150E1,-7.239063478E0,-7.185754997E0,-6.833209993E0,1.227729098E1
1.041176650E1,-6.857427991E0,-7.316670063E0,-6.455586866E0,1.192613019E1
1.042170250E1,-6.370996367E0,-7.434147642E0,-6.521168067E0,1.176357849E1
1.043163750E1,-5.997536457E0,-7.624479774E0,-6.881819651E0,1.189380415E1
1.044157350E1,-5.670270721E0,-7.883009736E0,-7.378178678E0,1.219554563E1
1.045150850E1,-5.490357742E0,-8.275683011E0,-7.877593460E0,1.267625482E1
1.046144450E1,-5.348345246E0,-8.651418657E0,-8.070090231E0,1.298376671E1
1.047138050E1,-5.139758692E0,-9.072607049E0,-8.042132354E0,1.316834124E1
1.048131550E1,-4.696288315E0,-9.512551555E0,-7.860859898E0,1.320366916E1
1.049125150E1,-4.095846218E0,-1.007238094E1,-7.644878955E0,1.329183916E1
1.050118650E1,-3.307689203E0,-1.069002701E1,-7.445041004E0,1.344046580E1
1.051112250E1,-2.384106726E0,-1.159854165E1,-7.118351219E0,1.381597109E1
1.052105750E1,-1.681501054E0,-1.244693288E1,-6.551274796E0,1.416590220E1
1.053099350E1,-5.698971194E-1,-1.297866113E1,-5.737053525E0,1.420155662E1
1.054092850E1,1.987682024E0,-1.325728329E1,-4.280296344E0,1.407222004E1
1.055086450E1,4.489844180E0,-1.244202121E1,-1.170080477E0,1.327899398E1
1.056079950E1,5.685759995E0,-1.126039249E1,2.174102368E0,1.280043073E1
1.057073550E1,6.125594573E0,-1.106537147E1,4.477182035E0,1.341679968E1
1.058067150E1,5.536544314E0,-1.116356493E1,5.399416582E0,1.358058189E1
1.059060650E1,4.501097439E0,-1.082705300E1,4.861937011E0,1.269343871E1
1.060054250E1,3.728324156E0,-9.964551265E0,3.730742272E0,1.127435678E1
1.061047750E1,3.914526107E0,-9.162025595E0,3.439918723E0,1.054036377E1
1.062041350E1,4.744377278E0,-8.366572132E0,5.052013035E0,1.086422941E1
1.063034850E1,5.946610132E0,-7.325137416E0,7.971741233E0,1.235186093E1
1.064028450E1,7.529991108E0,-6.373591361E0,1.081635727E1,1.463957026E1
1.065021950E1,8.783425983E0,-5.305999711E0,1.315621651E1,1.668497041E1
1.066015550E1,9.795329336E0,-4.016098090E0,1.538076164E1,1.867204727E1
1.067009150E1,1.092729532E1,-3.066038983E0,1.768454940E1,2.101308320E1
1.068002650E1,1.190419666E1,-2.355175434E0,1.982825209E1,2.324685636E1
1.068996250E1,1.253882187E1,-1.560678868E0,2.193923260E1,2.531773488E1
1.069989750E1,1.302723862E1,-8.355106911E-1,2.345879999E1,2.684627202E1
1.070983350E1,1.290528442E1,-3.008515245E-1,2.370348257E1,2.699059028E1
1.071976850E1,1.222748687E1,-4.368855348E-1,2.241666244E1,2.553838403E1
1.072970450E1,1.143178023E1,-1.275050862E0,1.946201057E1,2.260710528E1
1.073963950E1,1.034437587E1,-1.692236250E0,1.602525812E1,1.914885567E1
1.074957550E1,9.241733084E0,-2.040569504E0,1.318834696E1,1.623286942E1
1.075951050E1,8.531384676E0,-2.533561997E0,1.143797944E1,1.449244060E1
1.076944650E1,7.789903936E0,-2.913228434E0,1.058308260E1,1.345998293E1
1.077938250E1,7.103729671E0,-3.285995448E0,9.720272137E0,1.247976088E1
1.078931750E1,6.443983651E0,-3.724879854E0,8.707973512E0,1.145549902E1
1.079925350E1,5.697166743E0,-4.418763965E0,7.780259539E0,1.060733814E1
1.080918850E1,5.327187681E0,-5.334696676E0,6.894303457E0,1.021613123E1
1.081912450E1,5.275164419E0,-6.251799706E0,6.360740350E0,1.036201607E1
1.082905950E1,5.450441140E0,-7.403270250E0,5.668725302E0,1.080047062E1
1.083899550E1,5.813275489E0,-8.512192944E0,5.077275345E0,1.149044497E1
1.084893050E1,5.523070575E0,-9.471087779E0,4.444507209E0,1.183044617E1
1.085886650E1,5.082126780E0,-1.054881558E1,3.631054262E0,1.225928537E1
1.086880150E1,4.585707819E0,-1.150793670E1,3.006531284E0,1.274757050E1
1.087873750E1,3.694683955E0,-1.245665095E1,2.337326224E0,1.320158840E1
1.088867350E1,2.565459728E0,-1.330381894E1,1.532863371E0,1.363535303E1
1.089860850E1,1.264976109E0,-1.384747434E1,6.774098736E-1,1.392162326E1
1.090854450E1,-2.022575283E-1,-1.408955609E1,-1.116221774E-1,1.409144983E1
1.091847950E1,-1.479967558E0,-1.412097318E1,-9.833829743E-1,1.423233043E1
1.092841563E1,-2.814118713E0,-1.378816837E1,-2.246787352E0,1.425064576E1
1.093835063E1,-4.151790331E0,-1.306786508E1,-3.804633536E0,1.422960635E1
1.094828663E1,-5.175393963E0,-1.206792104E1,-5.307765570E0,1.416304332E1
1.095822163E1,-6.008340942E0,-1.100677068E1,-6.673129016E0,1.420492212E1
1.096815763E1,-6.498966774E0,-1.017728350E1,-7.999400318E0,1.448461508E1
1.097809263E1,-6.588415725E0,-9.313394805E0,-9.098796728E0,1.459228037E1
1.098802862E1,-6.297402141E0,-8.256978353E0,-9.508794719E0,1.408020391E1
1.099796463E1,-5.801187540E0,-7.081948793E0,-9.030649184E0,1.285925349E1
1.100789962E1,-5.394445864E0,-6.111413906E0,-8.216597482E0,1.157419113E1
1.101783563E1,-5.153346452E0,-5.513646618E0,-7.601786145E0,1.071188271E1
1.102777063E1,-4.865299745E0,-5.067295318E0,-7.325983508E0,1.014981073E1
1.103770663E1,-4.592923868E0,-4.519572594E0,-7.082249340E0,9.574953880E0
1.104764163E1,-4.353470154E0,-3.976248731E0,-6.376084614E0,8.684337128E0
1.105757763E1,-4.057398729E0,-3.565157311E0,-5.173574309E0,7.479218023E0
1.106751263E1,-3.733339898E0,-3.355163916E0,-4.145458089E0,6.509974997E0
1.107744863E1,-3.446795633E0,-3.170342200E0,-3.665665686E0,5.947148453E0
1.108738363E1,-3.160616819E0,-2.815562975E0,-3.501015109E0,5.493086595E0
1.109731962E1,-2.954859440E0,-2.416339064E0,-3.399620297E0,5.111487743E0
1.110725563E1,-2.708842227E0,-2.025760846E0,-3.335373723E0,4.750394835E0
1.111719062E1,-2.268455671E0,-1.709172710E0,-2.994764055E0,4.127441609E0
1.112712663E1,-1.834529705E0,-1.318817856E0,-2.394210861E0,3.291963764E0
1.113706163E1,-1.367699701E0,-8.459353995E-1,-1.678119317E0,2.324283463E0
1.114699763E1,-6.984588998E-1,-4.977179199E-1,-7.219568861E-1,1.121066326E0
1.115693263E1,-1.735691149E-1,-2.947300744E-1,1.537618911E-1,3.750130312E-1
1.116686863E1,7.925601147E-2,-1.801638240E-1,7.351900122E-1,7.610813838E-1
1.117680363E1,2.779711869E-1,-3.603989840E-2,1.021286088E0,1.059052467E0
1.118673963E1,2.617565655E-1,1.161134237E-1,1.287870590E0,1.319321599E0
1.119667463E1,1.896555360E-1,8.982726574E-2,1.513949090E0,1.528424027E0
1.120661062E1,1.941400581E-1,1.301432329E-1,1.522163258E0,1.540002795E0
1.121654663E1,1.495051912E-1,1.708661664E-1,1.264134695E0,1.284361155E0
1.122648162E1,5.647306658E-2,1.529602379E-1,8.903894413E-1,9.051957792E-1
1.123641763E1,7.534290858E-2,2.044063801E-1,6.602547276E-1,6.952660120E-1
1.124635263E1,6.850013137E-2,3.014075947E-1,5.403084540E-1,6.224725148E-1
1.125628863E1,8.077818789E-2,3.700808036E-1,3.224353516E-1,4.974429342E-1
1.126622363E1,1.506277104E-1,4.237968349E-1,2.496533042E-1,5.144115442E-1
1.127615963E1,3.718900052E-1,4.894610667E-1,4.880995426E-1,7.849302359E-1
1.128609463E1,4.758239711E-1,5.506977868E-1,7.793268424E-1,1.066314602E0
1.129603063E1,4.474903375E-1,5.001831061E-1,7.862452680E-1,1.033737086E0
1.130596563E1,5.314925339E-1,4.413285416E-1,6.612569404E-1,9.563032659E-1
1.131590162E1,7.348339167E-1,4.556998283E-1,5.907152537E-1,1.047180849E0
1.132583763E1,8.406400879E-1,5.013695061E-1,5.064255935E-1,1.102049918E0
1.133577262E1,7.872565439E-1,4.793383670E-1,3.868713757E-1,9.996037202E-1
1.134570863E1,8.057355727E-1,4.647951722E-1,2.392630944E-1,9.604640511E-1
1.135564363E1,8.897841083E-1,5.645597810E-1,-2.769212097E-2,1.054139630E0
1.136557963E1,8.175531609E-1,6.599284530E-1,-1.554058358E-1,1.062096845E0
1.137551463E1,7.291735927E-1,5.178422821E-1,-7.655116260E-2,8.976161974E-1
1.138545063E1,5.966246691E-1,3.748673344E-1,2.022537276E-1,7.330709955E-1
1.139538563E1,5.588855698E-1,2.939746141E-1,4.348597670E-1,7.667314855E-1
1.140532163E1,6.009721470E-1,2.433581918E-1,4.313181084E-1,7.787336141E-1
1.141525663E1,5.530076563E-1,2.346534419E-1,2.223886147E-1,6.405750554E-1
1.142519262E1,4.958367976E-1,2.174105877E-1,-4.223619282E-2,5.430519215E-1
1.143512763E1,5.445857654E-1,2.400545150E-1,-2.861042619E-1,6.603449664E-1
1.144506362E1,5.439984857E-1,2.795846164E-1,-4.546163392E-1,7.620878729E-1
1.145499963E1,6.896450993E-1,3.244701827E-1,-1.966488791E-1,7.871226359E-1
1.146493462E1,1.357235963E0,3.662099469E-1,8.624713254E-1,1.649259219E0
1.147487063E1,7.611121809E-1,3.231878883E-1,8.294465438E-1,1.171206101E0
1.148480563E1,4.076092570E-1,7.597755075E-2,9.529640043E-1,1.039258528E0
1.149474163E1,7.267363270E-1,1.563323271E-1,8.200252175E-1,1.106809307E0
1.150467663E1,1.779427591E-1,1.538770813E-1,6.367138374E-1,6.787829494E-1
1.151461263E1,2.480757985E-1,-4.747939110E-2,5.900390232E-1,6.418270353E-1
1.152454763E1,2.618668221E-1,1.732354581E-2,4.727748674E-1,5.407313686E-1
1.153448363E1,2.382988154E-1,6.361653686E-2,3.564398342E-1,4.334544320E-1
1.154441863E1,9.225809947E-2,1.497296512E-2,9.987979889E-2,1.367907922E-1
1.155435462E1,-1.875412560E-1,-3.066279888E-2,-2.389172316E-2,1.915273984E-1
1.156429063E1,-2.528450069E-1,-9.299119413E-2,-1.393523052E-1,3.033101130E-1
1.157422562E1,-7.034054250E-2,-1.692067266E-2,-2.448334444E-1,2.552988769E-1
1.158416163E1,-4.441866606E-2,7.891109884E-2,-2.038962105E-1,2.231000764E-1
1.159409663E1,-1.259732911E-1,7.600854099E-2,-2.193933785E-2,1.487545055E-1
1.160403263E1,-1.641436225E-1,4.288347960E-3,2.443066102E-1,2.943590300E-1
1.161396763E1,-1.977056171E-1,-8.385550439E-2,4.332590917E-1,4.835625060E-1
1.162390363E1,-2.158751088E-1,-9.868345857E-2,4.591093397E-1,5.168383436E-1
1.163383863E1,-2.078629616E-1,-1.194843435E-1,2.819024527E-1,3.700709553E-1
1.164377463E1,-7.273176134E-2,-8.369762957E-2,1.380714726E-1,1.770845387E-1
1.165370963E1,-7.905435562E-4,8.792458177E-3,4.495573282E-2,4.581430119E-2
1.166364562E1,7.999721915E-2,7.533435702E-2,-2.856423318E-2,1.135373764E-1
1.167358163E1,1.605760901E-1,1.088915277E-1,-6.553968608E-2,2.047864643E-1
1.168351662E1,1.772998577E-1,9.775492072E-2,-4.136495769E-2,2.066454060E-1
1.169345263E1,9.071706578E-2,1.110579211E-1,4.098079562E-2,1.491404488E-1
1.170338763E1,9.299572572E-2,5.994682431E-2,2.305966437E-2,1.130202410E-1
1.171332363E1,5.628661349E-2,5.040124476E-2,4.718381435E-2,8.907738584E-2
1.172325863E1,5.200411275E-2,9.260060012E-2,4.922770858E-2,1.170583879E-1
1.173319463E1,6.301368892E-2,1.091137218E-1,-6.070140749E-2,1.398613247E-1
1.174312963E1,1.307033962E-1,1.237668443E-1,-1.430924767E-1,2.299501390E-1
1.175306563E1,3.275268146E-1,1.667772084E-1,-1.124328938E-1,3.843560942E-1
1.176300063E1,4.057602212E-1,2.019523036E-1,-4.603811091E-1,6.460471002E-1
1.177293662E1,3.981104551E-1,4.091133070E-1,-2.552942593E0,2.615985764E0
1.178287263E1,6.901335610E-1,2.401971871E-1,-2.650329432E-1,7.773168477E-1
1.179280762E1,4.795857042E-1,-1.111965001E-2,8.841987017E-1,1.005949024E0
1.180274363E1,2.124840161E-1,-5.504627287E-2,6.564101833E-1,6.921371815E-1
1.181267863E1,4.109423161E-3,-6.472224534E-2,6.669439423E-1,6.700896049E-1
1.182261463E1,-4.341192171E-2,-6.938949287E-2,6.307660496E-1,6.360544835E-1
1.183254963E1,-5.301334217E-2,-9.380161822E-2,3.492372340E-1,3.654802370E-1
1.184248563E1,-3.174292579E-2,-3.969265401E-2,1.360471666E-2,5.261376660E-2