"Time (s)","Linear Acceleration x (m/s^2)","Linear Acceleration y (m/s^2)","Linear Acceleration z (m/s^2)","Absolute acceleration (m/s^2)"
4.456750001E-3,-3.582884315E-1,1.548073733E-1,-2.390079803E0,2.421738506E0
1.439175000E-2,-3.477537954E-1,7.227304727E-2,-2.466925081E0,2.492363427E0
2.432775000E-2,-4.586392236E-1,2.924163312E-2,-2.138472944E0,2.187297772E0
3.426375000E-2,-7.300608346E-1,-7.103694588E-2,-1.772246625E0,1.918044100E0
4.419975000E-2,-1.006130397E0,-2.733704880E-1,-1.452057774E0,1.787596593E0
5.413475000E-2,-1.105691523E0,-5.012972930E-1,-1.160586938E0,1.679528136E0
6.407075000E-2,-5.325570926E-1,-8.615462959E-1,-1.824756961E0,2.087011510E0
7.400675000E-2,-1.319222483E-1,-1.429551841E0,-3.211567994E0,3.517838957E0
8.394274999E-2,-1.109834568E0,-1.307517819E0,-3.249956135E0,3.674717743E0
9.387775000E-2,-1.405997502E0,-1.307451746E0,-3.840772837E0,4.293925364E0
1.038137500E-1,-3.458579234E0,-4.543105298E-1,-1.462091596E0,3.782311491E0
1.137497500E-1,-4.121877145E0,3.061833081E-1,9.773281825E-1,4.247209648E0
1.236857500E-1,-2.964383969E0,3.750725716E-1,8.902362442E-1,3.117815312E0
1.336207500E-1,-2.306685644E0,7.674809682E-1,3.627536577E-1,2.457929192E0
1.435567500E-1,-7.614080501E-1,4.114437148E-1,-1.462325485E0,1.699242176E0
1.534927500E-1,-7.489031947E-1,6.375301087E-1,-1.587013265E0,1.867059651E0
1.634287500E-1,-1.201800452E0,8.504646528E-1,-9.241039020E-1,1.738269966E0
1.733637500E-1,-8.008592141E-1,6.976318842E-1,-5.270656800E-1,1.185691342E0
1.832997500E-1,-6.247831786E-1,6.282616872E-1,-8.183061361E-2,8.898106636E-1
1.932357500E-1,-1.129512495E0,3.343853062E-1,5.974392593E-2,1.179483508E0
2.031717500E-1,-1.717036631E0,1.138885581E-1,-2.057436383E-1,1.733065446E0
2.131067500E-1,-2.230485899E0,-1.420905563E-1,-8.356741208E-1,2.386128310E0
2.230427500E-1,-2.397648439E0,6.643021703E-3,-1.264273274E0,2.710562502E0
2.329787500E-1,-2.043696011E0,2.052843395E-1,-2.056946386E0,2.906864888E0
2.429147500E-1,-1.604378911E0,2.588087283E-1,-2.516388432E0,2.995534074E0
2.528497500E-1,2.494422197E-2,-1.020169562E-1,-1.584864998E0,1.588340876E0
2.627857500E-1,1.563952432E0,5.565894413E-1,6.436802101E-1,1.780467137E0
2.727217500E-1,2.357707863E0,2.161192009E0,2.810332056E0,4.257640606E0
2.826577500E-1,3.523666053E0,2.771847437E0,4.195371383E0,6.140073429E0
2.925927500E-1,3.699660813E0,1.552091647E0,4.358513963E0,5.923944849E0
3.025287500E-1,4.457613158E0,1.913860926E0,5.290996925E0,7.178288596E0
3.124647500E-1,6.014839538E0,3.502122280E0,5.823803986E0,9.075232669E0
3.223997500E-1,6.283779883E0,3.826957621E0,5.142180024E0,8.976274820E0
3.323357500E-1,6.229363940E0,3.940101536E0,4.906792756E0,8.854715713E0
3.422717500E-1,5.718760511E0,3.879286985E0,4.525160778E0,8.260155529E0
3.522077500E-1,5.754335555E0,3.738965504E0,4.174524013E0,8.032365247E0
3.621427500E-1,7.110917069E0,3.332963208E0,3.944956772E0,8.788428144E0
3.720787500E-1,8.488215267E0,3.032174833E0,4.228188881E0,9.955976288E0
3.820147500E-1,9.874266747E0,2.796898663E0,4.624773359E0,1.125665646E1
3.919507500E-1,1.127031872E1,2.610499953E0,5.011803487E0,1.260765514E1
4.018857500E-1,1.284287591E1,2.594154646E0,5.755010324E0,1.431045925E1
4.118217500E-1,1.436530142E1,2.601125697E0,6.620219901E0,1.602981757E1
4.217577500E-1,1.539272972E1,2.134416731E0,7.036448100E0,1.705882366E1
4.316937500E-1,1.594703407E1,1.116105414E0,7.173964671E0,1.752196781E1
4.416287500E-1,1.572060766E1,-1.429673463E-1,6.959492310E0,1.719280309E1
4.515647500E-1,1.495669349E1,-1.773655951E0,6.402224007E0,1.636572662E1
4.615007500E-1,1.441379472E1,-3.248105491E0,6.042381678E0,1.596302114E1
4.714367500E-1,1.447458588E1,-4.271980433E0,5.801223793E0,1.616841522E1
4.813717500E-1,1.484085547E1,-5.276760709E0,5.967513928E0,1.684358683E1
4.913077500E-1,1.525292045E1,-6.327394849E0,6.489921716E0,1.774278985E1
5.012437500E-1,1.504276100E1,-7.697805612E0,6.732309271E0,1.818969097E1
5.111797500E-1,1.396155586E1,-9.405596625E0,6.468020970E0,1.803401190E1
5.211147500E-1,1.243437540E1,-1.089852702E1,5.608680829E0,1.745992220E1
5.310507500E-1,1.086197257E1,-1.205449583E1,4.390947591E0,1.680992976E1
5.409867500E-1,9.551074181E0,-1.317975155E1,3.149510033E0,1.657854886E1
5.509226250E-1,8.397597458E0,-1.420325402E1,2.106573606E0,1.663399292E1
5.608586250E-1,7.391858824E0,-1.505071204E1,1.351362142E0,1.682229739E1
5.707946250E-1,6.093337238E0,-1.569272930E1,1.151241333E0,1.687352566E1
5.807306250E-1,4.091576581E0,-1.621009679E1,1.247205251E0,1.676495624E1
5.906656250E-1,1.951977755E0,-1.673795886E1,1.354937276E0,1.690577827E1
6.006016250E-1,2.301238963E-1,-1.707533268E1,1.538324085E0,1.714603115E1
6.105376250E-1,-1.352351345E0,-1.705468616E1,1.690310762E0,1.719151897E1
6.204736250E-1,-2.962366095E0,-1.679177429E1,1.693353653E0,1.713495677E1
6.304086250E-1,-4.283783915E0,-1.637572034E1,1.401296926E0,1.698465939E1
6.403446250E-1,-5.494599313E0,-1.593975779E1,8.066409409E-1,1.687948961E1
6.502806250E-1,-6.701205007E0,-1.556696154E1,2.697660450E-1,1.695019805E1
6.602166250E-1,-7.861449298E0,-1.511363977E1,-2.514178477E-2,1.703599496E1
6.701516250E-1,-8.852227830E0,-1.463012416E1,-1.432684779E-2,1.709978584E1
6.800876250E-1,-9.777554385E0,-1.423468281E1,5.228463292E-2,1.726932246E1
6.900236250E-1,-1.050046612E1,-1.385341745E1,1.729267251E-1,1.738409812E1
6.999596250E-1,-1.095636417E1,-1.339333981E1,4.930011173E-1,1.731087858E1
7.098946250E-1,-1.129574709E1,-1.295826253E1,8.188875686E-1,1.720991130E1
7.198306250E-1,-1.170035103E1,-1.281767909E1,8.379551927E-1,1.737507641E1
7.297666250E-1,-1.195835942E1,-1.288033435E1,1.124794815E0,1.761165910E1
7.397026250E-1,-1.195285017E1,-1.285228292E1,1.665532601E0,1.763025247E1
7.496376250E-1,-1.163621409E1,-1.272895695E1,2.209880165E0,1.738710424E1
7.595736250E-1,-1.123949571E1,-1.267894572E1,2.612379248E0,1.714370011E1
7.695096250E-1,-1.086794959E1,-1.279158648E1,2.763361373E0,1.701097231E1
7.794456250E-1,-1.036214790E1,-1.291433591E1,2.620801578E0,1.676373413E1
7.893806250E-1,-9.831072196E0,-1.302317832E1,2.378328362E0,1.648968162E1
7.993166250E-1,-9.295275453E0,-1.327222059E1,2.108351744E0,1.634010808E1
8.092526250E-1,-8.760496711E0,-1.368382481E1,1.890551147E0,1.635749210E1
8.191876250E-1,-8.197535559E0,-1.412844358E1,1.761064264E0,1.642905519E1
8.291236250E-1,-7.569915896E0,-1.438229811E1,1.620582715E0,1.633341403E1
8.390596250E-1,-6.868816613E0,-1.454369529E1,1.490215534E0,1.615303243E1
8.489956250E-1,-6.077144544E0,-1.463289691E1,1.401733128E0,1.590654624E1
8.589306250E-1,-5.288403684E0,-1.472796912E1,1.307872453E0,1.570321045E1
8.688666250E-1,-4.657022800E0,-1.500750345E1,1.255921111E0,1.576357698E1
8.788026250E-1,-3.979495105E0,-1.533871080E1,1.024459080E0,1.587960789E1
8.887386250E-1,-3.161206218E0,-1.565917330E1,7.251237381E-1,1.599152080E1
8.986736250E-1,-2.371624821E0,-1.608590544E1,4.798763108E-1,1.626687552E1
9.086096250E-1,-1.424563581E0,-1.646536518E1,3.107853591E-2,1.652690526E1
9.185456250E-1,-3.042639595E-1,-1.668927962E1,-5.288501772E-1,1.670042854E1
9.284816250E-1,1.404960206E0,-1.682098815E1,-4.855580503E-1,1.688654264E1
9.384166250E-1,3.656785519E0,-1.656472223E1,2.292962229E-1,1.696510182E1
9.483526250E-1,5.930269504E0,-1.582207205E1,1.623676039E0,1.697475727E1
9.582886250E-1,8.774810110E0,-1.458651796E1,3.641375767E0,1.740756778E1
9.682246250E-1,1.153207868E1,-1.268595185E1,5.194000973E0,1.791367799E1
9.781596250E-1,1.367158776E1,-1.037486091E1,5.819277656E0,1.812219753E1
9.880956250E-1,1.457563278E1,-8.061128204E0,5.565745309E0,1.756155972E1
9.980316250E-1,1.451032172E1,-6.342285953E0,5.221346061E0,1.667442600E1
1.007967625E0,1.632113775E1,-5.593610800E0,6.733590395E0,1.852050914E1
1.017902625E0,1.836063956E1,-4.261215709E0,1.000162495E1,2.133784305E1
1.027838625E0,1.911302301E1,-2.889239647E0,1.248479711E1,2.301142137E1
1.037774625E0,1.965315605E1,-2.159465472E0,1.271289933E1,2.350590656E1
1.047710625E0,1.998636548E1,-1.134298879E0,1.113677299E1,2.290784040E1
1.057645625E0,1.998794891E1,5.336604622E-1,8.382480651E0,2.168107186E1
1.067581625E0,1.954792488E1,2.566617184E0,4.895755844E0,2.031446077E1
1.077517625E0,1.927424712E1,3.854183426E0,2.068447567E0,1.976435699E1
1.087453625E0,1.940090600E1,4.259422953E0,7.754325968E-1,1.987810688E1
1.097388625E0,2.001150851E1,4.219805728E0,3.768425238E-1,2.045505423E1
1.107324625E0,2.061818520E1,4.806790166E0,4.978483129E-1,2.117693664E1
1.117260625E0,2.137211583E1,5.849970860E0,8.899573320E-1,2.217614751E1
1.127196625E0,2.237036184E1,6.752177525E0,1.297507678E0,2.340317321E1
1.137131625E0,2.288070683E1,7.309097918E0,1.522862293E0,2.406800297E1
1.147067625E0,2.244335848E1,6.934416525E0,1.562492382E0,2.354212936E1
1.157003625E0,2.110354386E1,5.719531758E0,1.636773655E0,2.192604923E1
1.166939625E0,1.940189301E1,4.345513263E0,1.964360112E0,1.997938058E1
1.176874625E0,1.801273724E1,2.929183731E0,2.332636757E0,1.839782635E1
1.186810625E0,1.713127767E1,1.861973319E0,2.726570692E0,1.744654140E1
1.196746625E0,1.651144591E1,8.873136596E-1,2.983009690E0,1.680218791E1
1.206682625E0,1.592840484E1,-2.760860811E-1,3.341700995E0,1.627750809E1
1.216617625E0,1.536878888E1,-1.520521360E0,3.868782170E0,1.592102799E1
1.226553625E0,1.502179405E1,-2.845542235E0,4.716333155E0,1.599985017E1
1.236489625E0,1.479035190E1,-4.196018378E0,5.883988792E0,1.646154317E1
1.246424625E0,1.462075692E1,-5.634103938E0,6.944474906E0,1.713871033E1
1.256360625E0,1.421559633E1,-7.275276453E0,7.781338935E0,1.776406660E1
1.266296625E0,1.359310760E1,-8.951567931E0,8.115957545E0,1.818713582E1
1.276232625E0,1.306907662E1,-1.057738507E1,7.942396397E0,1.859471697E1
1.286167625E0,1.217899708E1,-1.203490532E1,7.531081613E0,1.870518929E1
1.296103625E0,1.064090104E1,-1.338469646E1,6.996087694E0,1.847495919E1
1.306039625E0,9.164230580E0,-1.480882910E1,6.290017692E0,1.851617844E1
1.315975625E0,8.071409948E0,-1.598120052E1,5.525982488E0,1.873720659E1
1.325910625E0,7.099272923E0,-1.684014012E1,4.790417962E0,1.889280550E1
1.335846625E0,6.142816377E0,-1.752690730E1,4.073556340E0,1.901369332E1
1.345782625E0,5.274432932E0,-1.820397043E1,3.335618721E0,1.924397398E1
1.355718625E0,4.295987931E0,-1.883713501E1,2.710189717E0,1.950995376E1
1.365653625E0,2.950146584E0,-1.903502817E1,2.299980350E0,1.939911266E1
1.375589625E0,1.639348477E0,-1.891855281E1,1.953693182E0,1.908968362E1
1.385525625E0,4.311517552E-1,-1.879754351E1,1.761679976E0,1.888483651E1
1.395461625E0,-8.848421878E-1,-1.863338761E1,1.573997217E0,1.872067164E1
1.405396625E0,-2.239177493E0,-1.834962925E1,1.359314648E0,1.853565606E1
1.415332625E0,-3.305775117E0,-1.808848324E1,1.069319649E0,1.841914275E1
1.425268625E0,-4.469428627E0,-1.781328755E1,7.438839447E-1,1.838048881E1
1.435204625E0,-5.730480670E0,-1.727293231E1,2.747910690E-1,1.820077223E1
1.445139625E0,-6.783419783E0,-1.657249318E1,-3.542511849E-1,1.791055019E1
1.455075625E0,-7.680059313E0,-1.572295005E1,-1.242966605E0,1.754250368E1
1.465011625E0,-8.425989783E0,-1.480888991E1,-2.054515114E0,1.716163036E1
1.474947625E0,-9.485785925E0,-1.405650295E1,-2.605737981E0,1.715678525E1
1.484882625E0,-1.067451551E1,-1.347468043E1,-3.038888022E0,1.745700818E1
1.494818625E0,-1.135387777E1,-1.290065342E1,-3.014273583E0,1.744772892E1
1.504754625E0,-1.143133116E1,-1.225325087E1,-2.475433949E0,1.693945874E1
1.514690625E0,-1.113556145E1,-1.167202711E1,-1.710015879E0,1.622224091E1
1.524625625E0,-1.083961165E1,-1.110020684E1,-9.941716719E-1,1.554670865E1
1.534561625E0,-1.055050542E1,-1.059255626E1,-5.736971883E-1,1.496143513E1
1.544497625E0,-1.016400213E1,-1.034721645E1,-5.106361735E-1,1.451318631E1
1.554432875E0,-9.767452735E0,-1.031918957E1,-5.932315664E-1,1.422113674E1
1.564367875E0,-9.481774735E0,-1.035485057E1,-6.922565389E-1,1.405724730E1
1.574303875E0,-9.233717136E0,-1.047121484E1,-8.625251198E-1,1.398755954E1
1.584239875E0,-9.018335533E0,-1.070340076E1,-1.074740456E0,1.403738689E1
1.594175875E0,-8.951170321E0,-1.087452654E1,-1.440632315E0,1.415818488E1
1.604111875E0,-8.658434731E0,-1.110433498E1,-1.914281341E0,1.421053202E1
1.614046875E0,-8.281099287E0,-1.138027678E1,-2.128205234E0,1.423434447E1
1.623982875E0,-8.072180026E0,-1.162762687E1,-2.029179128E0,1.429962814E1
1.633918875E0,-7.861593139E0,-1.197567419E1,-1.839165670E0,1.444312810E1
1.643853875E0,-7.560738691E0,-1.244018987E1,-1.709709485E0,1.465763282E1
1.653789875E0,-7.134057425E0,-1.293400594E1,-1.679957682E0,1.486625517E1
1.663725875E0,-6.622338347E0,-1.356930592E1,-1.612573784E0,1.518492089E1
1.673661875E0,-6.076917672E0,-1.438772315E1,-1.520602929E0,1.569228279E1
1.683597875E0,-5.643210976E0,-1.530179382E1,-1.352767959E0,1.636522855E1
1.693532875E0,-5.387660755E0,-1.612854216E1,-1.173503510E0,1.704505416E1
1.703468875E0,-5.015850345E0,-1.671038807E1,-1.032785661E0,1.747748467E1
1.713404875E0,-4.524790942E0,-1.724155849E1,-9.041024776E-1,1.784831851E1
1.723340875E0,-4.249404334E0,-1.763186248E1,-9.482843314E-1,1.816147722E1
1.733275875E0,-3.967183208E0,-1.809486372E1,-9.654953183E-1,1.854979291E1
1.743211875E0,-3.006075202E0,-1.870440672E1,-1.013565424E0,1.897152165E1
1.753147875E0,-1.267628991E0,-1.925855553E1,-1.375914162E0,1.934921146E1
1.763083875E0,1.126685366E0,-1.963923266E1,-1.747732174E0,1.974901130E1
1.773018875E0,4.109202721E0,-1.944149386E1,-1.504035721E0,1.992785372E1
1.782954875E0,6.941792203E0,-1.836254809E1,3.478508592E-3,1.963088545E1
1.792890875E0,9.551471207E0,-1.631728678E1,3.132919436E0,1.916506285E1
1.802826875E0,1.225826895E1,-1.407678343E1,6.440419189E0,1.974588536E1
1.812761875E0,1.470642447E1,-1.170257531E1,8.939122133E0,2.081194595E1
1.822697875E0,1.655929602E1,-9.131800752E0,1.010634157E1,2.144150670E1
1.832633875E0,1.709928170E1,-6.817165818E0,9.788155387E0,2.084867311E1
1.842569875E0,1.709436770E1,-5.228196074E0,8.727163489E0,1.989258213E1
1.852504875E0,1.727475431E1,-4.482155092E0,8.106652286E0,1.960164947E1
1.862440875E0,1.759796500E1,-3.588437708E0,8.321263812E0,1.979415794E1
1.872376875E0,1.877747470E1,-2.504271247E0,8.577343791E0,2.079508973E1
1.882312875E0,2.051549406E1,-9.127111870E-1,8.979394830E0,2.241312271E1
1.892247875E0,2.229025967E1,1.313969929E0,9.184054395E0,2.414392363E1
1.902183875E0,2.394604847E1,2.756869209E0,9.075275134E0,2.575605140E1
1.912119875E0,2.483977433E1,3.787561713E0,8.843929462E0,2.663785090E1
1.922055875E0,2.486665983E1,4.563119733E0,8.829468128E0,2.677932673E1
1.931990875E0,2.426546315E1,4.296223574E0,9.055813261E0,2.625410430E1
1.941926875E0,2.317813130E1,3.469890673E0,9.350700041E0,2.523294479E1
1.951862875E0,2.196870958E1,3.122841175E0,9.384244933E0,2.409233054E1
1.961798875E0,2.070979938E1,2.562734341E0,8.952377186E0,2.270701334E1
1.971733875E0,1.937100100E1,1.809639277E0,8.505989048E0,2.123351887E1
1.981669875E0,1.813741157E1,1.105944707E0,8.154069697E0,1.991676844E1
1.991605875E0,1.690565934E1,5.284044001E-1,8.116064549E0,1.876035801E1
2.001541875E0,1.572492641E1,-1.440330014E-1,8.276581728E0,1.777064605E1
2.011476875E0,1.454815672E1,-1.029154394E0,8.162676213E0,1.671338702E1
2.021412875E0,1.366557799E1,-2.128024555E0,7.623335474E0,1.579214216E1
2.031348875E0,1.325216347E1,-3.239722630E0,6.702256921E0,1.519986471E1
2.041284875E0,1.334238601E1,-4.293053799E0,5.916090006E0,1.521347088E1
2.051220875E0,1.329053641E1,-5.190578012E0,5.622499554E0,1.533600206E1
2.061155875E0,1.290267773E1,-6.132382021E0,5.410768951E0,1.527617827E1
2.071091875E0,1.225860458E1,-7.396516131E0,5.093296716E0,1.519616757E1
2.081027875E0,1.137948624E1,-8.744389971E0,4.930900826E0,1.517467779E1
2.090963875E0,1.050634959E1,-1.014927884E1,4.886294172E0,1.540347732E1
2.100898875E0,9.562888480E0,-1.141570272E1,4.735949979E0,1.562678236E1
2.110834875E0,8.740436084E0,-1.267615075E1,4.194649545E0,1.595854334E1
2.120770875E0,7.657683188E0,-1.328277598E1,3.921620534E0,1.582565503E1
2.130706875E0,6.656431122E0,-1.343431593E1,3.587127639E0,1.541610860E1
2.140641875E0,5.709114944E0,-1.369539177E1,2.943397728E0,1.512684169E1
2.150577875E0,4.564176909E0,-1.413693491E1,2.226452782E0,1.502137581E1
2.160513875E0,3.539410266E0,-1.500667081E1,1.313839244E0,1.547429376E1
2.170449875E0,2.421346620E0,-1.586942046E1,2.641219470E-1,1.605525415E1
2.180384875E0,1.020310480E0,-1.605517598E1,-3.528651389E-1,1.609143322E1
2.190320875E0,-1.895614690E-1,-1.605006434E1,-5.755111773E-1,1.606149782E1
2.200256875E0,-1.641782380E0,-1.602336830E1,-5.319248624E-1,1.611603937E1
2.210192875E0,-3.061501836E0,-1.579698516E1,-5.650335516E-1,1.610083217E1
2.220128875E0,-3.916712674E0,-1.552636315E1,-5.854160683E-1,1.602346101E1
2.230063875E0,-5.014994897E0,-1.509915856E1,-7.698644395E-1,1.592882464E1
2.239999875E0,-5.915236312E0,-1.454762696E1,-1.143966373E0,1.574586072E1
2.249935875E0,-6.574671260E0,-1.397355668E1,-1.460719839E0,1.551194027E1
2.259871875E0,-7.288192368E0,-1.351172488E1,-1.607429404E0,1.543594139E1
2.269806875E0,-8.084708270E0,-1.301429640E1,-1.851382257E0,1.543249930E1
2.279742875E0,-8.963398018E0,-1.270310173E1,-2.393551880E0,1.573023802E1
2.289678875E0,-9.619831005E0,-1.256082026E1,-2.870408689E0,1.607963309E1
2.299614875E0,-1.008284278E1,-1.222203961E1,-2.860780663E0,1.610049802E1
2.309549875E0,-1.045304637E1,-1.178530522E1,-2.641543990E0,1.597301951E1
2.319485875E0,-1.069914165E1,-1.125815651E1,-2.250909054E0,1.569344805E1
2.329421875E0,-1.080717597E1,-1.065311704E1,-1.614017462E0,1.526070141E1
2.339357875E0,-1.077971277E1,-1.016088439E1,-9.135327208E-1,1.484184359E1
2.349292875E0,-1.082122098E1,-9.906153953E0,-3.370873046E-1,1.467461541E1
2.359228875E0,-1.108224420E1,-9.973471777E0,-9.029151639E-2,1.490954152E1
2.369164875E0,-1.129201423E1,-1.025823352E1,-2.028878399E-1,1.525719842E1
2.379100875E0,-1.143912082E1,-1.061565861E1,-4.915602171E-1,1.561369028E1
2.389035875E0,-1.145873706E1,-1.100239345E1,-7.052221549E-1,1.590134129E1
2.398971875E0,-1.128127640E1,-1.126535093E1,-7.426420692E-1,1.596016435E1
2.408907875E0,-1.086349986E1,-1.151766062E1,-7.211078703E-1,1.584904199E1
2.418843875E0,-1.029194739E1,-1.182080133E1,-5.477811956E-1,1.568297132E1
2.428779875E0,-9.894424438E0,-1.198432456E1,-4.250808835E-1,1.554684418E1
2.438714875E0,-9.368402486E0,-1.205531210E1,-3.958857358E-1,1.527266318E1
2.448650875E0,-8.663542859E0,-1.207573058E1,-2.951323446E-1,1.486497047E1
2.458586875E0,-7.951656632E0,-1.215025100E1,-1.756632403E-1,1.452199367E1
2.468522875E0,-7.272640529E0,-1.238598852E1,-1.572339678E-1,1.436414753E1
2.478457875E0,-6.619760309E0,-1.289161597E1,-4.343510592E-1,1.449840162E1
2.488393875E0,-5.996355320E0,-1.363275523E1,-6.618182731E-1,1.490792727E1
2.498329875E0,-5.589838761E0,-1.408483154E1,-8.229154962E-1,1.517583496E1
2.508265875E0,-5.383992212E0,-1.423468164E1,-7.482629246E-1,1.523723830E1
2.518200875E0,-4.980186422E0,-1.425632569E1,-2.602338409E-1,1.510340361E1
2.528136875E0,-4.255772536E0,-1.425644264E1,2.623609118E-1,1.488040960E1
2.538072875E0,-2.908788643E0,-1.438548016E1,4.566564327E-1,1.468371976E1
2.548008875E0,-1.085140899E0,-1.435468405E1,3.288357139E-1,1.439939644E1
2.557945750E0,6.586870891E-1,-1.409669904E1,2.509798913E-1,1.411431130E1
2.567880750E0,2.392470145E0,-1.396354391E1,1.627774206E-1,1.416795569E1
2.577816750E0,4.208925229E0,-1.394280851E1,1.131342673E-1,1.456467508E1
2.587752750E0,5.648609710E0,-1.364050630E1,7.353838474E-1,1.478211734E1
2.597688750E0,7.024599887E0,-1.286199163E1,2.336192156E0,1.484027042E1
2.607623750E0,9.036932017E0,-1.171015096E1,4.047435658E0,1.533543319E1
2.617559750E0,1.069432588E1,-1.030068430E1,5.088739396E0,1.569611327E1
2.627495750E0,1.159570458E1,-8.835001348E0,5.471345521E0,1.557090990E1
2.637431750E0,1.251222172E1,-7.806437523E0,5.531163121E0,1.575087060E1
2.647367750E0,1.306319900E1,-7.506954247E0,5.439578183E0,1.601844378E1
2.657302750E0,1.351866202E1,-7.099104524E0,5.747173301E0,1.631506999E1
2.667238750E0,1.446850712E1,-6.007320603E0,6.948911773E0,1.713805630E1
2.677174750E0,1.614809876E1,-3.934007860E0,9.380354195E0,1.908477289E1
2.687110750E0,1.838283910E1,-1.601402971E0,1.166559868E1,2.183069988E1
2.697045750E0,2.087335535E1,-3.257191479E-2,1.234547550E1,2.425095441E1
2.706981750E0,2.372045119E1,1.019891527E0,1.215577428E1,2.667326062E1
2.716917750E0,2.723772449E1,2.248936496E0,1.202915166E1,2.986053985E1
2.726853750E0,3.076353471E1,3.979719346E0,1.305160163E1,3.365378937E1
2.736788750E0,3.280905915E1,5.898408026E0,1.481883018E1,3.648045103E1
2.746724750E0,3.252155389E1,6.906178567E0,1.557079965E1,3.671234904E1
2.756660750E0,3.026308556E1,6.634666616E0,1.453922451E1,3.422370813E1
2.766596750E0,2.695760076E1,5.548673193E0,1.209044100E1,3.006125041E1
2.776532750E0,2.356493163E1,4.038495558E0,9.269000405E0,2.564234423E1
2.786467750E0,2.040551027E1,2.522318386E0,6.701458776E0,2.162536680E1
2.796403750E0,1.782032993E1,1.165754268E0,4.715176283E0,1.847040956E1
2.806339750E0,1.555728674E1,-1.796103850E-2,3.469241047E0,1.593942052E1
2.816275750E0,1.356662907E1,-1.056227295E0,2.947953293E0,1.392334259E1
2.826210750E0,1.185299493E1,-2.184786401E0,2.940433774E0,1.240616505E1
2.836146750E0,1.030378099E1,-3.403796671E0,3.055806940E0,1.127349504E1
2.846082750E0,8.861195705E0,-4.672751226E0,3.180905195E0,1.051063990E1
2.856018750E0,7.453736984E0,-5.791676459E0,3.367667602E0,1.002212035E1
2.865954750E0,6.173775630E0,-6.694950825E0,3.453448595E0,9.739824397E0
2.875889750E0,5.460073258E0,-7.487172532E0,3.264180948E0,9.824715252E0
2.885825750E0,5.334339995E0,-8.028529977E0,2.975183777E0,1.008782411E1
2.895761750E0,5.413156954E0,-8.460197749E0,2.878161512E0,1.044801550E1
2.905697750E0,5.415763643E0,-8.809021000E0,3.110949107E0,1.079848837E1
2.915632750E0,5.155594121E0,-9.097210379E0,3.637666878E0,1.107122431E1
2.925568750E0,4.934303321E0,-9.605607069E0,3.937722889E0,1.149437680E1
2.935504750E0,4.526292214E0,-1.022535112E1,3.834381831E0,1.182148936E1
2.945440750E0,4.093093057E0,-1.102963446E1,3.398245324E0,1.224558363E1
2.955376750E0,3.882942957E0,-1.178123907E1,2.959800922E0,1.275285307E1
2.965311750E0,3.836832399E0,-1.209666478E1,2.788505862E0,1.299331930E1
2.975247750E0,3.776592629E0,-1.210191909E1,2.944505483E0,1.301496101E1
2.985183750E0,3.359005537E0,-1.191939942E1,3.193161544E0,1.278871695E1
2.995119750E0,2.748214161E0,-1.192117697E1,3.276549564E0,1.266502738E1
3.005054750E0,2.007616351E0,-1.207872201E1,3.079814731E0,1.262581909E1
3.014990750E0,1.297894179E0,-1.244085411E1,2.457660753E0,1.274752826E1
3.024926750E0,7.883081657E-1,-1.304319918E1,1.499113534E0,1.315271136E1
3.034862750E0,3.671253285E-1,-1.331622439E1,6.049418217E-1,1.333501285E1
3.044798750E0,-3.129707560E-1,-1.298719572E1,-7.684893206E-2,1.299119352E1
3.054733750E0,-8.766671956E-1,-1.266966618E1,-6.759276044E-1,1.271793477E1
3.064669750E0,-1.293388753E0,-1.249095305E1,-1.063239568E0,1.260266801E1
3.074605750E0,-1.881612655E0,-1.239115278E1,-1.333263402E0,1.260391704E1
3.084541750E0,-2.470598302E0,-1.243517413E1,-1.579175073E0,1.277619683E1
3.094476750E0,-2.907267490E0,-1.241744888E1,-1.853229539E0,1.288719134E1
3.104412750E0,-3.565422775E0,-1.226294439E1,-2.062238116E0,1.293618455E1
3.114348750E0,-4.423688198E0,-1.188968855E1,-2.181005591E0,1.287208205E1
3.124284750E0,-5.284783089E0,-1.141462099E1,-2.280469653E0,1.278370237E1
3.134220750E0,-6.086902962E0,-1.107681798E1,-2.504210436E0,1.288477218E1
3.144155750E0,-6.766299720E0,-1.076995494E1,-2.620340817E0,1.298618216E1
3.154091750E0,-6.976884268E0,-1.029994405E1,-2.437551008E0,1.267704289E1
3.164027750E0,-7.182622644E0,-9.790356864E0,-2.082606307E0,1.231983785E1
3.173963750E0,-7.652412508E0,-9.305140291E0,-1.755474472E0,1.217484060E1
3.183898750E0,-8.335948509E0,-9.023826653E0,-1.558798696E0,1.238334924E1
3.193834750E0,-9.150969679E0,-8.854235179E0,-1.721306852E0,1.284914876E1
3.203770750E0,-9.685337362E0,-8.730434421E0,-2.183408797E0,1.322095000E1
3.213706750E0,-9.973771155E0,-8.771853173E0,-2.518919692E0,1.351911519E1
3.223642750E0,-1.028958044E1,-8.945699666E0,-2.740174824E0,1.390717679E1
3.233577750E0,-1.045991802E1,-9.191372185E0,-2.553035856E0,1.415659563E1
3.243513750E0,-1.046174586E1,-9.368920550E0,-2.134723710E0,1.420499363E1
3.253449750E0,-1.020083725E1,-9.537646050E0,-1.753033844E0,1.407469007E1
3.263385750E0,-9.865281916E0,-9.569763052E0,-1.465067829E0,1.382210461E1
3.273320750E0,-9.332612849E0,-9.725650406E0,-1.341413251E0,1.354567562E1
3.283256750E0,-8.904788452E0,-9.901193175E0,-1.284623923E0,1.337830865E1
3.293192750E0,-8.462661180E0,-1.005167946E1,-1.216423169E0,1.319593041E1
3.303128750E0,-7.907262817E0,-1.043645665E1,-1.238352567E0,1.315210819E1
3.313064750E0,-7.293720911E0,-1.104514128E1,-1.344675997E0,1.330419724E1
3.322999750E0,-6.723974065E0,-1.183153214E1,-1.392966982E0,1.367981495E1
3.332935750E0,-6.223660566E0,-1.252463185E1,-1.315130602E0,1.404741692E1
3.342871750E0,-5.723663986E0,-1.322993586E1,-1.081326760E0,1.445547647E1
3.352807750E0,-5.287941754E0,-1.400013696E1,-8.126700050E-1,1.498754801E1
3.362743750E0,-4.984443195E0,-1.466875788E1,-6.166293825E-1,1.550475293E1
3.372678750E0,-4.959957395E0,-1.522902054E1,-6.058446318E-1,1.602782867E1
3.382614750E0,-5.002145641E0,-1.563185979E1,-6.856174640E-1,1.642700742E1
3.392550750E0,-4.820757410E0,-1.571371145E1,-8.337550646E-1,1.645769051E1
3.402486750E0,-4.200302340E0,-1.564788934E1,-1.065038025E0,1.623678806E1
3.412421750E0,-3.182976279E0,-1.574134656E1,-1.448126106E0,1.612508601E1
3.422357750E0,-1.645130496E0,-1.617629637E1,-2.126475627E0,1.639819860E1
3.432293750E0,3.063017142E-1,-1.669205822E1,-2.757367100E0,1.692104316E1
3.442229750E0,2.350590633E0,-1.695723997E1,-2.892461755E0,1.736201598E1
3.452165750E0,4.182979964E0,-1.668005038E1,-2.318321019E0,1.735211844E1
3.462100750E0,5.770584383E0,-1.599828257E1,-8.622082007E-1,1.702903674E1
3.472036750E0,7.839630997E0,-1.521055620E1,1.465632670E0,1.717465905E1
3.481972750E0,1.018520413E1,-1.383784749E1,5.039407023E0,1.790586578E1
3.491908750E0,1.221506505E1,-1.155555292E1,8.660305256E0,1.891400287E1
3.501844750E0,1.420480938E1,-9.351957777E0,1.049427977E1,1.998413450E1
3.511779750E0,1.583969556E1,-7.446875861E0,9.821915456E0,2.007042448E1
3.521715750E0,1.567137293E1,-6.403312758E0,7.427113441E0,1.848665351E1
3.531651750E0,1.427193776E1,-5.453779900E0,5.217503271E0,1.614479058E1
3.541587750E0,1.335609890E1,-4.699714199E0,3.964191480E0,1.470331614E1
3.551522125E0,1.351285222E1,-4.426072985E0,3.597404413E0,1.466726340E1
3.561458125E0,1.395467252E1,-3.720848199E0,4.670238969E0,1.517856147E1
3.571394125E0,1.474149373E1,-2.945185221E0,6.752320197E0,1.647967177E1
3.581330125E0,1.641048204E1,-1.786103065E0,8.419737940E0,1.853067921E1
3.591266125E0,1.869867060E1,-8.454518348E-2,9.192484326E0,2.083624722E1
3.601201125E0,2.058122144E1,1.910548771E0,9.006055795E0,2.254652775E1
3.611137125E0,2.168990265E1,3.667922418E0,8.343606607E0,2.352703345E1
3.621073125E0,2.236062272E1,4.725537257E0,8.315507812E0,2.432027592E1
3.631009125E0,2.208110008E1,5.113909321E0,9.045199395E0,2.440374319E1
3.640945125E0,2.072239194E1,4.955175542E0,9.691965181E0,2.340738092E1
3.650880125E0,1.911543441E1,4.693899435E0,9.638829778E0,2.191665038E1
3.660816125E0,1.778851406E1,4.066530618E0,8.882559677E0,2.029452562E1
3.670752125E0,1.669477717E1,3.324825346E0,7.895268424E0,1.876446940E1
3.680688125E0,1.622007565E1,2.794260399E0,6.844503890E0,1.782543067E1
3.690624125E0,1.621774144E1,2.443636206E0,5.935761793E0,1.744189678E1
3.700559125E0,1.619608803E1,2.239356710E0,5.385745207E0,1.721436137E1
3.710495125E0,1.597391722E1,1.815421296E0,5.298255658E0,1.692729450E1
3.720431125E0,1.544722577E1,8.383667636E-1,5.561158168E0,1.643916430E1
3.730367125E0,1.485211838E1,-5.917320845E-1,5.915345070E0,1.599771466E1
3.740303125E0,1.411607555E1,-2.166157756E0,5.892928015E0,1.544935044E1
3.750238125E0,1.320204932E1,-3.425822840E0,5.737369274E0,1.479688395E1
3.760174125E0,1.237889584E1,-4.481486755E0,5.484494154E0,1.426185339E1
3.770110125E0,1.191469943E1,-5.787496285E0,4.880552207E0,1.411647851E1
3.780046125E0,1.147343930E1,-6.751429081E0,4.433753887E0,1.403138544E1
3.789981125E0,1.103288551E1,-7.472118291E0,4.489596843E0,1.406106661E1
3.799917125E0,1.049747702E1,-8.422918240E0,4.775951951E0,1.428118667E1
3.809853125E0,9.889850746E0,-9.240606326E0,4.991338817E0,1.442606725E1
3.819789125E0,9.450301512E0,-1.053172183E1,4.714322298E0,1.491476443E1
3.829725125E0,8.964320709E0,-1.183817692E1,4.441183067E0,1.549921242E1
3.839660125E0,8.501753325E0,-1.255995955E1,4.133424811E0,1.571997437E1
3.849596125E0,7.963724701E0,-1.298116724E1,3.861671956E0,1.571127380E1
3.859532125E0,7.229293950E0,-1.328286252E1,3.497985375E0,1.552201757E1
3.869468125E0,6.204072393E0,-1.370756918E1,2.893842867E0,1.532195463E1
3.879404125E0,4.792727612E0,-1.414061163E1,2.136817013E0,1.508287513E1
3.889339125E0,3.209458904E0,-1.450972765E1,1.397331636E0,1.492599607E1
3.899275125E0,1.746379128E0,-1.503959414E1,5.626179206E-1,1.515109801E1
3.909211125E0,3.918189973E-1,-1.576582417E1,-2.951203761E-1,1.577345333E1
3.919147125E0,-9.543623659E-1,-1.613632013E1,-8.821562693E-1,1.618857111E1
3.929083125E0,-1.925275860E0,-1.602114402E1,-1.248490762E0,1.618463691E1
3.939018125E0,-2.711676957E0,-1.557755553E1,-1.276704016E0,1.586327208E1
3.948954125E0,-3.661241975E0,-1.506329525E1,-1.276945360E0,1.555436099E1
3.958890125E0,-4.731773897E0,-1.462264206E1,-1.620385079E0,1.545435191E1
3.968826125E0,-5.569746559E0,-1.426660510E1,-2.036449556E0,1.545008817E1
3.978762125E0,-6.385948867E0,-1.363079290E1,-2.374741387E0,1.523870909E1
3.988697125E0,-7.156649897E0,-1.279033050E1,-2.522740263E0,1.487193365E1
3.998633125E0,-7.720315053E0,-1.201077503E1,-2.404946349E0,1.447914874E1
4.008569125E0,-7.918597645E0,-1.150522827E1,-1.987963275E0,1.410767395E1
4.018505125E0,-8.121501290E0,-1.125719757E1,-1.531658260E0,1.396528758E1
4.028441125E0,-8.535370722E0,-1.110218203E1,-1.284015813E0,1.406270585E1
4.038376125E0,-9.003449691E0,-1.104876421E1,-1.312223951E0,1.431290427E1
4.048312125E0,-9.403857079E0,-1.089420593E1,-1.429006881E0,1.446230657E1
4.058248125E0,-9.626524898E0,-1.053909049E1,-1.529567295E0,1.435555593E1
4.068184125E0,-9.630826694E0,-1.010235143E1,-1.537124237E0,1.404183315E1
4.078120125E0,-9.507304848E0,-9.715686750E0,-1.308525002E0,1.365634110E1
4.088055125E0,-9.248596546E0,-9.506033664E0,-8.705147552E-1,1.329131333E1
4.097991125E0,-8.961859615E0,-9.382885455E0,-3.767956730E-1,1.298057942E1
4.107927125E0,-8.630461652E0,-9.412723796E0,-2.204739439E-1,1.277234694E1
4.117863125E0,-8.388155374E0,-9.591013588E0,-3.271295694E-1,1.274581131E1
4.127799125E0,-8.363395924E0,-9.757732909E0,-4.359041528E-1,1.285883958E1
4.137734125E0,-8.383498067E0,-9.988641794E0,-6.594267619E-1,1.305721442E1
4.147670125E0,-8.208580365E0,-1.023081709E1,-8.299175370E-1,1.314302755E1
4.157606125E0,-8.194242992E0,-1.041760991E1,-8.660603464E-1,1.328240471E1
4.167542125E0,-8.267755356E0,-1.056665543E1,-7.561443865E-1,1.343807055E1
4.177478125E0,-8.319515494E0,-1.076382354E1,-5.967142045E-1,1.361727958E1
4.187413125E0,-8.176213102E0,-1.100118308E1,-4.241336346E-1,1.371336498E1
4.197349125E0,-7.847737577E0,-1.142751059E1,-4.190383708E-1,1.386905103E1
4.207285125E0,-7.455118681E0,-1.200368586E1,-4.118843025E-1,1.413636861E1
4.217221125E0,-7.014560802E0,-1.257319765E1,-3.071290952E-1,1.440082257E1
4.227157125E0,-6.507153461E0,-1.310389562E1,-2.779836853E-1,1.463326353E1
4.237092125E0,-5.954412657E0,-1.364696981E1,-3.845094661E-1,1.489438359E1
4.247028125E0,-5.622673216E0,-1.393849210E1,-4.940950582E-1,1.503795684E1
4.256964125E0,-5.432346931E0,-1.392439563E1,-5.812271961E-1,1.495784115E1
4.266900125E0,-4.965035117E0,-1.387091583E1,-7.474191713E-1,1.475169533E1
4.276836125E0,-3.998381612E0,-1.399059079E1,-1.068741798E0,1.458992444E1
4.286771125E0,-2.588171191E0,-1.404375251E1,-1.559081701E0,1.436510878E1
4.296707125E0,-8.570000857E-1,-1.394136191E1,-1.936774702E0,1.410131616E1
4.306643125E0,1.362561461E0,-1.367596615E1,-2.151219875E0,1.391101617E1
4.316579125E0,4.214081889E0,-1.334508157E1,-2.267258746E0,1.417709951E1
4.326515125E0,7.370060989E0,-1.304411837E1,-1.467330701E0,1.505389924E1
4.336450125E0,9.947397873E0,-1.234958141E1,1.024857567E0,1.589066451E1
4.346386125E0,1.162499211E1,-1.093576326E1,4.643050878E0,1.662195178E1
4.356322125E0,1.261293299E1,-8.663217169E0,7.584060311E0,1.707792087E1
4.366258125E0,1.263971090E1,-5.991820219E0,9.088165905E0,1.668109591E1
4.376194125E0,1.198285223E1,-4.403051620E0,8.840959661E0,1.552862450E1
4.386129125E0,1.102041223E1,-3.731125265E0,7.081931251E0,1.362073903E1
4.396065125E0,1.039826966E1,-2.812487632E0,4.995530686E0,1.187389681E1
4.406001125E0,1.056801666E1,-1.890874059E0,2.926001384E0,1.112743749E1
4.415937125E0,1.176754255E1,-8.376285526E-1,1.654507383E0,1.191276937E1
4.425873125E0,1.370312296E1,5.426002702E-1,1.212000335E0,1.376731414E1
4.435808125E0,1.544248952E1,1.091008068E0,1.234168592E0,1.553009830E1
4.445744125E0,1.739739030E1,1.403068632E0,2.554522219E0,1.763982354E1
4.455680125E0,1.942444572E1,2.493733395E0,6.221577787E0,2.054837774E1
4.465616125E0,2.071030925E1,3.555778962E0,1.034885016E1,2.342347483E1
4.475552125E0,2.075751967E1,4.416151721E0,1.275647278E1,2.476094943E1
4.485487125E0,2.068049547E1,4.772747969E0,1.309346419E1,2.493793938E1
4.495423125E0,2.035172524E1,4.756901722E0,1.154126817E1,2.387512734E1
4.505359125E0,1.944998870E1,4.619774282E0,8.921336657E0,2.189142806E1
4.515295125E0,1.814803830E1,4.340044947E0,6.757372191E0,1.984563840E1
4.525231125E0,1.702858653E1,3.730076859E0,5.535142736E0,1.828999830E1
4.535167125E0,1.619135646E1,3.178703719E0,5.430534879E0,1.737109353E1
4.545102125E0,1.525924363E1,2.830452033E0,6.087589425E0,1.667077442E1
4.555038125E0,1.470478374E1,2.403659085E0,6.428499055E0,1.622756427E1
4.564974125E0,1.435178734E1,1.969852694E0,6.503420014E0,1.587918736E1
4.574910125E0,1.387761791E1,1.452212433E0,6.284527742E0,1.530334894E1
4.584846125E0,1.352127689E1,5.120486415E-1,5.528501469E0,1.461682083E1
4.594781125E0,1.306810481E1,-6.049821675E-1,4.693261212E0,1.389849156E1
4.604717125E0,1.241595316E1,-1.636931530E0,4.156288009E0,1.319508119E1
4.614653125E0,1.206890103E1,-2.669056309E0,3.784966719E0,1.292703395E1
4.624589125E0,1.172666934E1,-3.539997034E0,3.719945388E0,1.280173217E1
4.634525125E0,1.124660826E1,-4.450974814E0,3.902853895E0,1.270943125E1
4.644460125E0,1.078372747E1,-5.578303374E0,4.113878739E0,1.281913589E1
4.654396125E0,1.031695944E1,-6.788300453E0,4.289053134E0,1.307350955E1
4.664332125E0,9.830770479E0,-7.723777190E0,4.474984066E0,1.327879003E1
4.674268125E0,9.426290506E0,-8.532447699E0,4.421282653E0,1.346125391E1
4.684204125E0,9.227676963E0,-9.462995818E0,3.834312834E0,1.376227695E1
4.694139125E0,8.919947943E0,-1.009127329E1,3.171514859E0,1.383682675E1
4.704075125E0,8.318727289E0,-1.064088467E1,2.747122486E0,1.378319020E1
4.714011125E0,7.341358761E0,-1.147736395E1,2.329208242E0,1.382210703E1
4.723947125E0,6.463484700E0,-1.264707137E1,1.620166101E0,1.429510360E1
4.733883125E0,5.427200797E0,-1.347324318E1,1.036313140E0,1.456216795E1
4.743819125E0,4.634197901E0,-1.357691315E1,1.053284976E0,1.438463660E1
4.753754125E0,4.597977324E0,-1.385413783E1,7.831640777E-1,1.461820360E1
4.763690125E0,4.259590183E0,-1.439098941E1,2.320102081E-1,1.500994715E1
4.773626125E0,3.479938236E0,-1.486322692E1,1.026031396E-1,1.526551709E1
4.783562125E0,2.645430927E0,-1.538057335E1,1.808811311E-1,1.560746807E1
4.793498125E0,1.577244030E0,-1.559151400E1,4.063022581E-1,1.567635446E1
4.803433125E0,4.121798792E-1,-1.544612415E1,3.889338349E-1,1.545651685E1
4.813369125E0,-6.110863683E-1,-1.541067833E1,3.264149666E-2,1.542282395E1
4.823305125E0,-1.400930597E0,-1.542092382E1,-2.049618655E-1,1.548578404E1
4.833241125E0,-2.103584948E0,-1.538514939E1,-3.504704118E-1,1.553224777E1
4.843177125E0,-3.025192966E0,-1.543516881E1,-5.335567107E-1,1.573788141E1
4.853112125E0,-4.072140144E0,-1.512865425E1,-7.699303669E-1,1.568602237E1
4.863048125E0,-5.311344066E0,-1.454239721E1,-9.322707081E-1,1.551002325E1
4.872984125E0,-6.835720788E0,-1.386586500E1,-1.087093284E0,1.549745343E1
4.882920125E0,-8.231376904E0,-1.310612926E1,-1.262400995E0,1.552803420E1
4.892856125E0,-8.947296540E0,-1.242804988E1,-1.337129581E0,1.537200230E1
4.902792125E0,-9.070888553E0,-1.175099727E1,-1.429681649E0,1.491344848E1
4.912727125E0,-8.878618069E0,-1.098888054E1,-1.530888620E0,1.421017151E1
4.922663125E0,-8.550096935E0,-1.034513601E1,-1.471958188E0,1.350157982E1
4.932599125E0,-8.358125829E0,-9.858363490E0,-1.265657895E0,1.298643477E1
4.942535125E0,-8.602606101E0,-9.446723601E0,-7.732531933E-1,1.280013043E1
4.952471125E0,-9.003894664E0,-9.301697450E0,-5.438020192E-2,1.294583531E1
4.962406125E0,-9.444623866E0,-9.391789010E0,3.717519744E-1,1.332459456E1
4.972342125E0,-9.887009000E0,-9.456023598E0,4.987699071E-1,1.369007307E1
4.982278125E0,-1.022019621E1,-9.518666573E0,5.527266975E-1,1.397722901E1
4.992214125E0,-1.040874553E1,-9.641309583E0,6.342463124E-1,1.420208091E1
5.002150125E0,-1.039092088E1,-9.780058748E0,6.811819124E-1,1.428582495E1
5.012085125E0,-1.017010195E1,-9.873696059E0,6.408712077E-1,1.418913540E1
5.022021125E0,-9.652759016E0,-9.979745840E0,4.053207298E-1,1.389011766E1
5.031957125E0,-8.967893357E0,-1.014837369E1,-8.556340300E-2,1.354326109E1
5.041893125E0,-8.249973389E0,-1.048292331E1,-5.754150637E-1,1.335233479E1
5.051829125E0,-7.690904143E0,-1.079350635E1,-8.304519725E-1,1.327928599E1
5.061765125E0,-7.056045628E0,-1.125486570E1,-8.852450609E-1,1.331328061E1
5.071700125E0,-6.476999370E0,-1.180575878E1,-8.473118341E-1,1.349242004E1
5.081636125E0,-6.049639826E0,-1.231155580E1,-7.793122244E-1,1.373971891E1
5.091572125E0,-5.882993596E0,-1.292198173E1,-6.240288877E-1,1.421184849E1
5.101508125E0,-5.754906828E0,-1.360385595E1,-4.471026671E-1,1.477781276E1
5.111444125E0,-5.525151599E0,-1.441095882E1,-3.394770616E-1,1.543756065E1
5.121380125E0,-5.172760962E0,-1.530208150E1,-3.466212263E-1,1.615646312E1
5.131315125E0,-4.687724191E0,-1.610737875E1,-3.957366318E-1,1.678031632E1
5.141251125E0,-3.831898518E0,-1.673262971E1,-6.250620908E-1,1.717716641E1
5.151187125E0,-3.000864748E0,-1.702590266E1,-1.031544151E0,1.731908294E1
5.161123125E0,-2.263024485E0,-1.718310622E1,-1.535338497E0,1.739935871E1
5.171059125E0,-1.264463893E0,-1.740699728E1,-1.910435627E0,1.755711216E1
5.180994125E0,-8.926768720E-2,-1.749860911E1,-1.708070656E0,1.758200202E1
5.190930125E0,1.410109264E0,-1.745262895E1,-9.833218709E-1,1.753709175E1
5.200866125E0,3.683618976E0,-1.715683585E1,1.631650910E-1,1.754858080E1
5.210802125E0,6.668712029E0,-1.636612389E1,1.548835040E0,1.774036700E1
5.220738125E0,9.250298671E0,-1.513653981E1,2.771683130E0,1.795452841E1
5.230674125E0,1.110897767E1,-1.361463003E1,3.943301717E0,1.800880796E1
5.240609125E0,1.261688805E1,-1.183528839E1,5.652593418E0,1.819922327E1
5.250545125E0,1.350298446E1,-9.578871260E0,7.800219010E0,1.830105955E1
5.260481125E0,1.427904797E1,-7.624505501E0,9.018146083E0,1.852973972E1
5.270417125E0,1.479183943E1,-6.090749846E0,8.520532243E0,1.812443702E1
5.280353125E0,1.451726471E1,-4.870704034E0,6.888533424E0,1.679067078E1
5.290289125E0,1.385784029E1,-3.989737380E0,4.918838021E0,1.523655831E1
5.300224125E0,1.355781848E1,-4.234627250E0,3.413467088E0,1.460815757E1
5.310160125E0,1.324076140E1,-4.661652626E0,2.884998369E0,1.433080539E1
5.320096125E0,1.327546813E1,-4.296131773E0,3.517779661E0,1.438991230E1
5.330032125E0,1.434218153E1,-3.042048734E0,5.169406414E0,1.554589959E1
5.339968125E0,1.609892134E1,-6.363001469E-1,7.803055494E0,1.790161504E1
5.349903125E0,1.806695146E1,2.103860059E0,1.062156897E1,2.106320701E1
5.359839125E0,1.916509481E1,3.956903218E0,1.163472656E1,2.276674777E1
5.369775125E0,1.956073028E1,4.851297417E0,1.057270379E1,2.275828028E1
5.379711125E0,1.931508291E1,4.917264535E0,8.191414694E0,2.154880955E1
5.389647125E0,1.874184761E1,4.118817297E0,5.938898240E0,2.008711080E1
5.399583125E0,1.819539841E1,3.581426604E0,4.941411781E0,1.919157863E1
5.409518125E0,1.762725487E1,3.809214830E0,5.246140010E0,1.878169899E1
5.419454125E0,1.716565228E1,3.702268378E0,6.041035649E0,1.857042059E1
5.429390125E0,1.656747159E1,3.627407061E0,6.787733274E0,1.826780009E1
5.439326125E0,1.591577485E1,3.513019443E0,7.400032647E0,1.790010273E1
5.449262125E0,1.524729309E1,2.996255095E0,7.749541191E0,1.736412623E1
5.459197125E0,1.475300924E1,2.433710557E0,7.560102514E0,1.675498071E1
5.469133125E0,1.449287129E1,1.578496796E0,7.003356952E0,1.617349619E1
5.479069125E0,1.419621281E1,7.417982429E-1,6.569807546E0,1.566030312E1
5.489005125E0,1.396362460E1,-1.365719542E-1,6.376467606E0,1.535124761E1
5.498941125E0,1.402885263E1,-1.450758523E0,6.054025823E0,1.534811503E1
5.508877125E0,1.413010419E1,-2.871756472E0,5.700738223E0,1.550500712E1
5.518812125E0,1.450995920E1,-4.319263943E0,5.671741880E0,1.616674404E1
5.528748125E0,1.457863591E1,-5.649073979E0,5.922254140E0,1.671890415E1
5.538684125E0,1.388004918E1,-6.718632633E0,6.182490320E0,1.661381883E1
5.548620125E0,1.329868626E1,-7.873457140E0,6.074134398E0,1.660546573E1
5.558556375E0,1.262618395E1,-8.916143160E0,5.502919900E0,1.640732329E1
5.568492375E0,1.233567206E1,-9.927166507E0,4.280937783E0,1.640255676E1
5.578427375E0,1.235303829E1,-1.104195571E1,2.896748056E0,1.682003241E1
5.588363375E0,1.201834015E1,-1.176051303E1,2.096859480E0,1.694541196E1
5.598299375E0,1.118966924E1,-1.253325766E1,1.905290077E0,1.690920979E1
5.608235375E0,1.004850793E1,-1.377760479E1,1.658586986E0,1.713317881E1
5.618171375E0,8.902823787E0,-1.524263403E1,9.808148772E-1,1.767937107E1
5.628107375E0,7.708350481E0,-1.620289419E1,-3.822441816E-2,1.794307411E1
5.638042375E0,6.520687426E0,-1.668843060E1,-9.791326332E-1,1.794385079E1
5.647978375E0,5.132810445E0,-1.718604971E1,-1.700028834E0,1.801655199E1
5.657914375E0,3.762243562E0,-1.767502662E1,-1.847671030E0,1.816521211E1
5.667850375E0,2.661624498E0,-1.774672050E1,-1.488790860E0,1.800685514E1
5.677786375E0,1.668072631E0,-1.758444507E1,-1.066016118E0,1.769552387E1
5.687722375E0,6.539525986E-1,-1.764955615E1,-9.087765956E-1,1.768503213E1
5.697657375E0,-5.025537135E-1,-1.781795830E1,-9.070073743E-1,1.784810524E1
5.707593375E0,-1.773210393E0,-1.786251642E1,-8.186465903E-1,1.796897188E1
5.717529375E0,-3.010143110E0,-1.770094265E1,-8.585507673E-1,1.797557904E1
5.727465375E0,-4.507553642E0,-1.742230529E1,-1.115432984E0,1.803050060E1
5.737401375E0,-6.007695994E0,-1.674175955E1,-1.610463524E0,1.785980170E1
5.747337375E0,-7.388551054E0,-1.590018851E1,-2.178823995E0,1.766787920E1
5.757272375E0,-9.005820737E0,-1.512801457E1,-2.767902321E0,1.782197843E1
5.767208375E0,-1.009032838E1,-1.450409093E1,-3.240147430E0,1.796334980E1
5.777144375E0,-1.019251315E1,-1.374797110E1,-3.101207646E0,1.739285838E1
5.787080375E0,-1.006235296E1,-1.262583195E1,-2.539911196E0,1.634361430E1
5.797016375E0,-9.746523796E0,-1.150488095E1,-1.919247381E0,1.520001718E1
5.806952375E0,-9.316899042E0,-1.069839086E1,-1.247533865E0,1.424136635E1
5.816887375E0,-9.240342032E0,-1.015198142E1,-5.848052170E-1,1.374003802E1
5.826823375E0,-9.521276770E0,-9.729952787E0,-6.683312673E-2,1.361363872E1
5.836759375E0,-1.003086337E1,-9.500388177E0,2.695905189E-1,1.381840347E1
5.846695375E0,-1.071557232E1,-9.576472147E0,1.851736452E-1,1.437242493E1
5.856631375E0,-1.120318918E1,-9.841414751E0,-3.913366020E-2,1.491195572E1
5.866567375E0,-1.135716975E1,-1.011086965E1,-4.116159884E-1,1.521132531E1
5.876502375E0,-1.112450086E1,-1.029599952E1,-7.243857463E-1,1.517520544E1
5.886438375E0,-1.059414904E1,-1.054864601E1,-8.547027147E-1,1.497466004E1
5.896374375E0,-9.828350902E0,-1.073225326E1,-1.027118978E0,1.458878730E1
5.906310375E0,-8.940486873E0,-1.079104818E1,-1.224813924E0,1.406695402E1
5.916246375E0,-8.089079064E0,-1.093133458E1,-1.304210926E0,1.366119475E1
5.926182375E0,-7.378391517E0,-1.113497673E1,-1.220743677E0,1.341337330E1
5.936117375E0,-6.786863793E0,-1.146228983E1,-1.162618845E0,1.337151042E1
5.946053375E0,-6.223807915E0,-1.188819634E1,-1.073797374E0,1.346172492E1
5.955989375E0,-5.786210482E0,-1.225068395E1,-8.877025726E-1,1.357746312E1
5.965925375E0,-5.371717152E0,-1.262673008E1,-7.192618313E-1,1.374070578E1
5.975861375E0,-5.153645829E0,-1.304568308E1,-7.618717343E-1,1.404743254E1
5.985797375E0,-5.008302174E0,-1.335061538E1,-9.197132277E-1,1.428873312E1
5.995732375E0,-4.776242850E0,-1.381266704E1,-1.061249614E0,1.465361789E1
6.005668375E0,-4.455409927E0,-1.455168844E1,-1.292257463E0,1.527325255E1
6.015604375E0,-4.045359896E0,-1.527264545E1,-1.684559441E0,1.588887586E1
6.025540375E0,-3.337165602E0,-1.560676237E1,-2.059353100E0,1.609188122E1
6.035476375E0,-2.238412970E0,-1.576127036E1,-2.229242928E0,1.607475226E1
6.045412375E0,-1.111071546E0,-1.595820693E1,-2.184430305E0,1.614529603E1
6.055347375E0,-1.435526526E-1,-1.608239945E1,-2.191713597E0,1.623169085E1
6.065283375E0,7.739433110E-1,-1.622155382E1,-2.266931595E0,1.639746247E1
6.075219375E0,1.784086652E0,-1.624466904E1,-2.310847692E0,1.650491607E1
6.085155375E0,3.545910616E0,-1.600015251E1,-1.720262247E0,1.647839994E1
6.095091375E0,5.909276245E0,-1.507139364E1,2.279946327E-2,1.618848269E1
6.105027375E0,8.276148450E0,-1.363350367E1,2.378195045E0,1.612522456E1
6.114963375E0,1.042015461E1,-1.226732395E1,4.539900732E0,1.672356295E1
6.124898375E0,1.259046916E1,-1.077853046E1,6.071431814E0,1.765103161E1
6.134834375E0,1.354435000E1,-8.667964523E0,6.668734249E0,1.740847617E1
6.144770375E0,1.310434469E1,-6.731942650E0,6.482637840E0,1.609557377E1
6.154706375E0,1.174598270E1,-5.749412785E0,5.678405367E0,1.425721377E1
6.164642375E0,9.966151063E0,-5.409406550E0,5.120341258E0,1.244201514E1
6.174578375E0,8.494318591E0,-5.036479322E0,5.079592012E0,1.110503612E1
6.184513375E0,8.224740314E0,-4.765950288E0,5.253326238E0,1.086085042E1
6.194449375E0,9.111216799E0,-5.281253124E0,5.176220174E0,1.173452860E1
6.204385375E0,1.099701986E1,-5.162442380E0,4.940209594E0,1.311453118E1
6.214321375E0,1.404591715E1,-4.508315242E0,4.750097025E0,1.549761648E1
6.224257375E0,1.747033432E1,-3.380470081E0,5.668021297E0,1.867529450E1
6.234193375E0,2.091282172E1,-1.769224492E0,7.868491099E0,2.241404515E1
6.244128375E0,2.345250838E1,2.489604092E-1,1.170965278E1,2.621446354E1
6.254064375E0,2.437522006E1,1.896978845E0,1.536166229E1,2.887439264E1
6.264000375E0,2.333894844E1,2.141406493E0,1.660717068E1,2.872438431E1
6.273936375E0,2.055593340E1,2.006969064E0,1.554116947E1,2.584767439E1
6.283872375E0,1.802248221E1,1.337632149E0,1.287353637E1,2.218844437E1
6.293808375E0,1.650882051E1,3.106684148E-1,9.777262609E0,1.918938596E1
6.303744375E0,1.588697147E1,-8.246912956E-2,7.380047448E0,1.751764150E1
6.313679375E0,1.609906167E1,1.478594193E-1,6.239202465E0,1.726642107E1
6.323615375E0,1.678831742E1,8.420914400E-1,6.498113666E0,1.802171471E1
6.333551375E0,1.705863888E1,1.543549157E0,7.365839884E0,1.864498060E1
6.343487375E0,1.697802332E1,1.249157637E0,7.957227859E0,1.879178400E1
6.353423375E0,1.632089802E1,3.119115329E-1,8.047579036E0,1.819979476E1
6.363359375E0,1.513706138E1,-7.500995350E-1,7.301443328E0,1.682273317E1
6.373294375E0,1.378477348E1,-2.275653301E0,6.023366532E0,1.521445110E1
6.383230375E0,1.264625861E1,-3.930262426E0,4.798053841E0,1.408531648E1
6.393166375E0,1.163656726E1,-5.121865042E0,3.970586872E0,1.331948795E1
6.403102375E0,1.069678405E1,-6.096194188E0,3.577763908E0,1.282127791E1
6.413038375E0,1.008571493E1,-7.080181764E0,3.625640910E0,1.284507265E1
6.422974375E0,9.747315509E0,-7.698459331E0,3.792919809E0,1.298701953E1
6.432909375E0,9.652513433E0,-8.083663373E0,3.821674662E0,1.315757676E1
6.442845375E0,9.834867039E0,-9.194383501E0,3.589907113E0,1.393372638E1
6.452781375E0,9.668706712E0,-1.003541250E1,3.693456332E0,1.441648408E1
6.462717375E0,9.455014953E0,-1.081864470E1,3.647889565E0,1.482388206E1
6.472653375E0,8.998921022E0,-1.195054988E1,3.341517392E0,1.532846895E1
6.482589375E0,7.773372104E0,-1.277579900E1,3.041697901E0,1.526100521E1
6.492525375E0,6.356827978E0,-1.353338531E1,2.795715771E0,1.521110800E1
6.502460375E0,5.037412537E0,-1.438289569E1,2.401173726E0,1.542753541E1
6.512396375E0,3.909508027E0,-1.520661635E1,1.668985382E0,1.578958347E1
6.522332375E0,2.886353461E0,-1.545901609E1,9.844544765E-1,1.575694658E1
6.532268375E0,1.845419267E0,-1.534492054E1,7.304569834E-1,1.547274139E1
6.542204375E0,6.759398836E-1,-1.527541118E1,6.903629181E-1,1.530593618E1
6.552140375E0,-3.792504072E-1,-1.548109284E1,4.156265205E-1,1.549131408E1
6.562076375E0,-1.443940085E0,-1.578992055E1,5.142392278E-2,1.585588845E1
6.572011375E0,-2.299954622E0,-1.593572321E1,-2.567648341E-1,1.610288774E1
6.581947375E0,-2.982940693E0,-1.541898021E1,-5.610251391E-1,1.571488578E1
6.591883375E0,-3.691762101E0,-1.468970962E1,-7.960376000E-1,1.516741086E1
6.601819375E0,-4.149458461E0,-1.420044034E1,-1.216624898E0,1.484421395E1
6.611755375E0,-4.904536316E0,-1.371573073E1,-1.545768176E0,1.464804236E1
6.621691375E0,-5.942248110E0,-1.334067979E1,-1.535364225E0,1.468473334E1
6.631626375E0,-6.977998163E0,-1.297595620E1,-1.510129396E0,1.481041487E1
6.641562375E0,-8.062160822E0,-1.250032497E1,-1.701623955E0,1.497170951E1
6.651498375E0,-8.992547557E0,-1.167336730E1,-2.036631989E0,1.487552639E1
6.661434375E0,-9.397770712E0,-1.082652207E1,-2.222112687E0,1.450756559E1
6.671370375E0,-9.604016626E0,-1.021537343E1,-2.110363040E0,1.417902048E1
6.681306375E0,-9.821666365E0,-9.617986794E0,-1.754067632E0,1.385812229E1
6.691242375E0,-1.013719499E1,-9.241801497E0,-1.682515254E0,1.382043685E1
6.701177375E0,-1.052443035E1,-9.096786456E0,-1.798795323E0,1.402678946E1
6.711113375E0,-1.087991650E1,-8.959503772E0,-1.819314373E0,1.421109411E1
6.721049375E0,-1.116167395E1,-8.819226730E0,-1.723048153E0,1.432936217E1
6.730985375E0,-1.128218740E1,-8.783040066E0,-1.625173949E0,1.438995259E1
6.740921375E0,-1.137676260E1,-8.892705181E0,-1.511226919E0,1.451877197E1
6.750857375E0,-1.148679317E1,-9.122079172E0,-1.333788482E0,1.472880638E1
6.760793375E0,-1.160032037E1,-9.463068323E0,-1.226129547E0,1.502066871E1
6.770728375E0,-1.153392874E1,-9.954171288E0,-1.117908111E0,1.527634632E1
6.780664375E0,-1.130039680E1,-1.044163027E1,-9.996949518E-1,1.541836569E1
6.790600375E0,-1.104962024E1,-1.092621710E1,-9.246669888E-1,1.556699510E1
6.800536375E0,-1.083366737E1,-1.127532978E1,-8.702188861E-1,1.566073725E1
6.810472375E0,-1.075208117E1,-1.140644541E1,-8.609849632E-1,1.569890255E1
6.820408375E0,-1.028275791E1,-1.168791985E1,-9.871550131E-1,1.559862352E1
6.830343375E0,-9.613097352E0,-1.211486248E1,-1.159272484E0,1.550888282E1
6.840279375E0,-8.923667357E0,-1.251203110E1,-1.410231471E0,1.543280642E1
6.850215375E0,-8.247052120E0,-1.298451185E1,-1.665790463E0,1.547211280E1
6.860151375E0,-7.591397982E0,-1.365037874E1,-1.695513030E0,1.571104476E1
6.870087375E0,-6.963645587E0,-1.451146544E1,-1.452141389E0,1.616117891E1
6.880023375E0,-6.425576032E0,-1.536856084E1,-1.075763719E0,1.669245210E1
6.889959375E0,-6.014137287E0,-1.602047276E1,-6.131870536E-1,1.712312451E1
6.899894375E0,-5.806669890E0,-1.639918288E1,-2.042976218E-1,1.739805598E1
6.909830375E0,-5.305926620E0,-1.655263955E1,1.123817307E-1,1.738261669E1
6.919766375E0,-4.349260744E0,-1.681254243E1,9.242576838E-2,1.736623721E1
6.929702375E0,-3.314370816E0,-1.710148494E1,-2.029780515E-1,1.742087946E1
6.939638375E0,-1.914802912E0,-1.710405303E1,-5.337817919E-1,1.721917604E1
6.949574375E0,-3.997098148E-2,-1.722756494E1,-6.821455336E-1,1.724111116E1
6.959510375E0,1.996775613E0,-1.715574710E1,-2.606492856E-1,1.727352626E1
6.969445375E0,4.259879036E0,-1.667568484E1,3.402006546E-1,1.721455114E1
6.979381375E0,6.149295677E0,-1.600681600E1,1.452071223E0,1.720873344E1
6.989317375E0,8.190089130E0,-1.433657054E1,3.031540411E0,1.678705013E1
6.999253375E0,1.122705751E1,-1.245462080E1,4.535041988E0,1.737040602E1
7.009189375E0,1.416431274E1,-9.694078950E0,6.658094655E0,1.841013706E1
7.019125375E0,1.650118639E1,-6.459893925E0,8.353650954E0,1.959088732E1
7.029061375E0,1.792035474E1,-4.923350902E0,8.512811580E0,2.044129299E1
7.038996375E0,1.728798773E1,-4.192851233E0,7.372517989E0,1.925638966E1
7.048932375E0,1.611037370E1,-4.606538817E0,5.398868698E0,1.760432117E1
7.058868375E0,1.536951627E1,-5.206790003E0,4.011991006E0,1.671612289E1
7.068804375E0,1.569253284E1,-4.734898942E0,3.042651874E0,1.667131024E1
7.078740375E0,1.766217795E1,-4.282787257E0,2.623262671E0,1.836236106E1
7.088676375E0,1.958446647E1,-3.162187381E0,3.655082810E0,2.017201989E1
7.098612375E0,2.150976864E1,-1.335491776E0,5.377072617E0,2.221185709E1
7.108547375E0,2.338384804E1,1.920050204E-1,6.442006123E0,2.425573454E1
7.118483375E0,2.427273007E1,1.671417823E0,6.414654018E0,2.516161459E1
7.128419375E0,2.419880489E1,2.756385645E0,5.760667505E0,2.502728731E1
7.138355375E0,2.326419763E1,2.808029715E0,5.017806823E0,2.396427148E1
7.148291375E0,2.157847577E1,2.730424007E0,4.529795574E0,2.221722034E1
7.158227375E0,1.962612320E1,2.475466694E0,4.293657231E0,2.024223653E1
7.168163375E0,1.796606711E1,2.059220368E0,4.364019701E0,1.860281225E1
7.178098375E0,1.641997792E1,1.741025125E0,4.222447500E0,1.704335372E1
7.188034375E0,1.501291213E1,1.594692414E0,4.044713487E0,1.562978828E1
7.197970375E0,1.405296538E1,1.051149572E0,3.620363213E0,1.454983784E1
7.207906375E0,1.323676307E1,4.525274214E-1,3.220265143E0,1.363036262E1
7.217842375E0,1.233847404E1,2.783835983E-1,3.129930631E0,1.273231734E1
7.227778375E0,1.147816151E1,-7.414854169E-2,3.090687336E0,1.188722162E1
7.237714375E0,1.085219602E1,-8.097224236E-1,3.124547100E0,1.132204061E1
7.247650375E0,1.023271744E1,-1.638129625E0,3.297893363E0,1.087511267E1
7.257585375E0,9.459554147E0,-2.415388599E0,3.587031160E0,1.040115663E1
7.267521375E0,8.672196153E0,-3.402125244E0,3.630656359E0,9.998155225E0
7.277457375E0,8.029390102E0,-4.614944190E0,3.347662523E0,9.847622031E0
7.287393375E0,7.673287067E0,-5.902254324E0,2.589105283E0,1.002094839E1
7.297329375E0,7.509044627E0,-7.049552295E0,1.813523583E0,1.045804984E1
7.307265375E0,8.016722109E0,-7.966192811E0,1.447326207E0,1.139398150E1
7.317201375E0,8.605531463E0,-8.242932172E0,2.038253715E0,1.208948224E1
7.327136375E0,9.163608436E0,-8.216564738E0,3.135110680E0,1.270088873E1
7.337072375E0,9.843565357E0,-9.059394681E0,4.324231153E0,1.405942339E1
7.347008375E0,9.806810929E0,-1.061304373E1,5.439663552E0,1.544021300E1
7.356944375E0,8.662741206E0,-1.166351591E1,6.316279292E0,1.584222436E1
7.366880375E0,7.300686699E0,-1.274902927E1,6.177377515E0,1.593730738E1
7.376816375E0,6.267970766E0,-1.403681888E1,4.745555785E0,1.608850650E1
7.386752375E0,5.434388194E0,-1.471252546E1,2.869098328E0,1.594436282E1
7.396688375E0,4.710419281E0,-1.508140290E1,1.173748143E0,1.584343549E1
7.406623375E0,3.988697453E0,-1.547697757E1,2.218547639E-1,1.598423478E1
7.416559375E0,2.845683737E0,-1.531909222E1,1.205260250E-1,1.558162472E1
7.426495375E0,1.763942994E0,-1.518899167E1,1.573360017E-1,1.529188404E1
7.436431375E0,7.397031856E-1,-1.499216270E1,1.370894328E-1,1.501102584E1
7.446367375E0,-1.889565745E-1,-1.485037240E1,-4.611260444E-2,1.485164608E1
7.456303375E0,-1.021637798E0,-1.487716317E1,-3.854285753E-1,1.491718080E1
7.466239375E0,-1.879393636E0,-1.504346851E1,-8.596525289E-1,1.518476433E1
7.476174375E0,-2.643484681E0,-1.500551306E1,-1.494220877E0,1.530967438E1
7.486110375E0,-3.598660102E0,-1.499704863E1,-2.252325835E0,1.558636564E1
7.496046375E0,-4.447989811E0,-1.464101635E1,-2.930591741E0,1.557986974E1
7.505982375E0,-5.093687310E0,-1.398525111E1,-3.529872873E0,1.529682652E1
7.515918375E0,-5.965083241E0,-1.351963265E1,-3.879263889E0,1.527780657E1
7.525854375E0,-6.910103803E0,-1.301026767E1,-3.700472991E0,1.518914414E1
7.535790375E0,-7.725804420E0,-1.234581931E1,-3.293556483E0,1.493167180E1
7.545726375E0,-8.602313156E0,-1.159250498E1,-2.966069137E0,1.473714794E1
7.555661792E0,-9.630834880E0,-1.088874580E1,-2.804382514E0,1.480480756E1
7.565597792E0,-1.061615679E1,-1.028239655E1,-2.557082130E0,1.499897106E1
7.575533792E0,-1.149383439E1,-9.782293553E0,-2.327063191E0,1.527143474E1
7.585469792E0,-1.210242312E1,-9.524993261E0,-2.223311951E0,1.556076020E1
7.595405792E0,-1.246894998E1,-9.383009416E0,-2.138011014E0,1.575076730E1
7.605341792E0,-1.291907449E1,-9.247866814E0,-2.227160588E0,1.604324688E1
7.615277792E0,-1.323324539E1,-9.090865565E0,-2.480766610E0,1.624551702E1
7.625212792E0,-1.322901317E1,-9.029681470E0,-2.542347146E0,1.621744326E1
7.635148792E0,-1.281248092E1,-9.184513401E0,-2.490211617E0,1.595982793E1
7.645084792E0,-1.213160774E1,-9.275566244E0,-2.511534074E0,1.547642849E1
7.655020792E0,-1.125341793E1,-9.333330887E0,-2.577010610E0,1.484558736E1
7.664956792E0,-1.020718382E1,-9.489488967E0,-2.635211456E0,1.418384087E1
7.674892792E0,-9.162388122E0,-9.592640283E0,-2.775899557E0,1.355262787E1
7.684828792E0,-8.115804348E0,-9.767620550E0,-2.841582500E0,1.301335017E1
7.694764792E0,-7.313339489E0,-1.003112532E1,-2.659343500E0,1.269568894E1
7.704699792E0,-6.806471846E0,-1.041206441E1,-2.360805718E0,1.266145915E1
7.714635792E0,-6.480835143E0,-1.081264546E1,-2.144512534E0,1.278723817E1
7.724571792E0,-6.160224708E0,-1.108855217E1,-2.039442161E0,1.284771116E1
7.734507792E0,-5.714321305E0,-1.138237944E1,-2.056197358E0,1.290116186E1
7.744443792E0,-5.373611065E0,-1.170714198E1,-2.157259025E0,1.306088189E1
7.754379792E0,-5.088194436E0,-1.215252323E1,-2.317960977E0,1.337708812E1
7.764315792E0,-4.635246015E0,-1.271232747E1,-2.559990535E0,1.377106847E1
7.774251792E0,-3.952896706E0,-1.317374529E1,-2.731935512E0,1.402271119E1
7.784186792E0,-2.886548173E0,-1.356805462E1,-2.680508666E0,1.412831884E1
7.794122792E0,-1.674149643E0,-1.404601538E1,-2.635724841E0,1.438889747E1
7.804058792E0,-3.523678333E-1,-1.423345840E1,-2.430756836E0,1.444382498E1
7.813994792E0,9.019020241E-1,-1.431052470E1,-2.015755383E0,1.447991072E1
7.823930792E0,2.429150314E0,-1.461092190E1,-1.323820733E0,1.487051819E1
7.833866792E0,4.427840306E0,-1.352486123E1,4.320279604E-1,1.423777684E1
7.843802792E0,6.580755288E0,-1.148205459E1,2.996367069E0,1.356916111E1
7.853738792E0,8.266827403E0,-9.545240414E0,5.200306610E0,1.365632596E1
7.863673792E0,9.470693092E0,-7.895880042E0,5.793367474E0,1.362358455E1
7.873609792E0,1.011956095E1,-6.796244481E0,4.822774699E0,1.310929474E1
7.883545792E0,9.676073619E0,-6.214942367E0,2.993495794E0,1.188330452E1
7.893481792E0,8.260027092E0,-6.858761156E0,1.145996088E0,1.079740521E1
7.903417792E0,6.793152473E0,-7.593600043E0,4.123357075E-1,1.019704383E1
7.913353792E0,5.866086956E0,-7.535755877E0,7.322479856E-1,9.577827517E0
7.923289792E0,5.562913502E0,-6.541988833E0,1.793888340E0,8.772779486E0
7.933225792E0,5.929428674E0,-5.134711960E0,3.070248978E0,8.423171618E0
7.943160792E0,7.152105440E0,-3.980825347E0,3.895049909E0,9.064821921E0
7.953096792E0,9.417883964E0,-2.634112472E0,4.315845953E0,1.068932239E1
7.963032792E0,1.238741992E1,-5.777943689E-1,4.201495757E0,1.309330306E1
7.972968792E0,1.503612207E1,1.014752994E0,3.475846354E0,1.546596904E1
7.982904792E0,1.669991804E1,2.194173813E0,2.787729059E0,1.707258313E1
7.992840792E0,1.755611765E1,2.350441821E0,2.565631636E0,1.789760624E1
8.002776792E0,1.739545136E1,2.107172799E0,3.431430027E0,1.785543663E1
8.012712792E0,1.710318063E1,2.154220958E0,5.012013402E0,1.795215123E1
8.022647792E0,1.673480838E1,2.417582767E0,6.657990575E0,1.817215883E1
8.032583792E0,1.620042783E1,2.621708188E0,7.715381173E0,1.813434097E1
8.042519792E0,1.608728772E1,2.657845735E0,7.606679095E0,1.799240220E1
8.052455792E0,1.626306438E1,2.776227294E0,6.756605036E0,1.782824760E1
8.062391792E0,1.672660474E1,3.106898449E0,5.529111918E0,1.788863334E1
8.072327792E0,1.707761309E1,3.594915546E0,4.403385788E0,1.799883588E1
8.082263792E0,1.700898900E1,3.722565233E0,3.633891623E0,1.778674695E1
8.092199792E0,1.654196838E1,3.257669781E0,3.176161934E0,1.715625643E1
8.102134792E0,1.562277789E1,2.589290640E0,2.941281328E0,1.610672999E1
8.112070792E0,1.464628001E1,1.817918642E0,2.668190044E0,1.499791934E1
8.122006792E0,1.382411355E1,9.172250913E-1,2.251713339E0,1.403629688E1
8.131942792E0,1.305909309E1,4.114656419E-2,1.880838776E0,1.319390616E1
8.141878792E0,1.239950494E1,-7.868375909E-1,1.708055307E0,1.254130333E1
8.151814792E0,1.208216485E1,-1.642779038E0,1.748640539E0,1.231808322E1
8.161750792E0,1.276523659E1,-2.691407876E0,1.577626438E0,1.314092259E1
8.171686792E0,1.345101558E1,-3.535917140E0,1.712775180E0,1.401306993E1
8.181622792E0,1.312078940E1,-4.032438427E0,2.677771877E0,1.398521134E1
8.191557792E0,1.262492446E1,-5.236665766E0,3.617998306E0,1.413864554E1
8.201493792E0,1.193579033E1,-6.461092020E0,4.068384770E0,1.416899981E1
8.211429792E0,1.123740825E1,-7.759532329E0,3.931299430E0,1.421072839E1
8.221365792E0,1.073678953E1,-9.375630230E0,3.506193404E0,1.467904914E1
8.231301792E0,1.019199626E1,-1.033558283E1,3.159274883E0,1.485537202E1
8.241237792E0,9.734886668E0,-1.053872095E1,2.949867672E0,1.464699208E1
8.251173792E0,8.930501583E0,-1.091655867E1,2.738869725E0,1.436755090E1
8.261109792E0,8.128233774E0,-1.204868487E1,2.328432316E0,1.471939497E1
8.271044792E0,7.190195373E0,-1.320633182E1,1.823677857E0,1.514700996E1
8.280980792E0,6.095204254E0,-1.373773848E1,1.460242707E0,1.509997623E1
8.290916792E0,4.781524347E0,-1.408798435E1,1.165944157E0,1.492292545E1
8.300852792E0,3.185830305E0,-1.472632606E1,9.265427756E-1,1.509545214E1
8.310788792E0,1.801589708E0,-1.566541345E1,6.247770390E-1,1.578104085E1
8.320724792E0,6.748762751E-1,-1.586923335E1,4.112367234E-1,1.588889993E1
8.330660792E0,-2.933928162E-1,-1.535964149E1,2.431332202E-1,1.536436721E1
8.340596792E0,-7.731597841E-1,-1.489039893E1,-3.455587506E-2,1.491049799E1
8.350532792E0,-1.298095031E0,-1.475009265E1,-4.232792102E-1,1.481315122E1
8.360467792E0,-2.030994104E0,-1.482034578E1,-6.269676983E-1,1.497199634E1
8.370403792E0,-2.600513201E0,-1.468511137E1,-7.147993094E-1,1.493071006E1
8.380339792E0,-2.943279614E0,-1.443613459E1,-7.740316770E-1,1.475344034E1
8.390275792E0,-3.495804948E0,-1.395079230E1,-6.967145292E-1,1.439898154E1
8.400211792E0,-4.622906928E0,-1.342833423E1,-5.631862700E-1,1.421297321E1
8.410147792E0,-5.898968773E0,-1.314593009E1,-5.063788523E-1,1.441768809E1
8.420083792E0,-6.929758049E0,-1.269298137E1,-5.125207676E-1,1.447052177E1
8.430019792E0,-7.605662264E0,-1.211658741E1,-4.893347669E-1,1.431423199E1
8.439955792E0,-8.336613922E0,-1.151266827E1,-4.980085266E-1,1.422282232E1
8.449890792E0,-9.124659548E0,-1.101216298E1,-5.964937645E-1,1.431373292E1
8.459826792E0,-9.708509878E0,-1.050987429E1,-6.691588676E-1,1.432342121E1
8.469762792E0,-1.013292301E1,-9.930567248E0,-4.714984202E-1,1.419558401E1
8.479698792E0,-1.058541330E1,-9.469059380E0,-2.110131490E-1,1.420417498E1
8.489634792E0,-1.111551252E1,-9.175898114E0,-1.773729479E-1,1.441468646E1
8.499570792E0,-1.155841571E1,-9.021041624E0,-3.880633307E-1,1.466720011E1
8.509506792E0,-1.181370632E1,-8.882381921E0,-6.757802546E-1,1.479584552E1
8.519442792E0,-1.200070846E1,-8.885255243E0,-7.313580394E-1,1.494990464E1
8.529378792E0,-1.196181044E1,-9.102344819E0,-6.083969414E-1,1.504352808E1
8.539313792E0,-1.167059805E1,-9.411570725E0,-4.885407150E-1,1.500063980E1
8.549249792E0,-1.122804335E1,-9.781414132E0,-2.584709054E-1,1.489334842E1
8.559185875E0,-1.061695552E1,-1.004723323E1,-5.514101147E-2,1.461744440E1
8.569121875E0,-9.861278912E0,-1.030590704E1,-3.401501675E-2,1.426385988E1
8.579057875E0,-9.026747337E0,-1.063190568E1,-2.529113728E-1,1.394932077E1
8.588993875E0,-8.206536763E0,-1.087235138E1,-5.581138104E-1,1.363329605E1
8.598929875E0,-7.568486252E0,-1.105633986E1,-6.599261141E-1,1.341492221E1
8.608865875E0,-7.036819983E0,-1.149467405E1,-6.099411911E-1,1.349134519E1
8.618801875E0,-6.608994416E0,-1.213842910E1,-5.883445001E-1,1.383352513E1
8.628736875E0,-6.342728587E0,-1.270464423E1,-5.515339386E-1,1.421064322E1
8.638672875E0,-6.033369949E0,-1.323775944E1,-5.082370609E-1,1.455672122E1
8.648608875E0,-5.815078186E0,-1.388442056E1,-4.773269613E-1,1.506054812E1
8.658544875E0,-5.587702188E0,-1.453685639E1,-4.951012179E-1,1.558164737E1
8.668480875E0,-5.271437404E0,-1.526627198E1,-7.179912313E-1,1.616671346E1
8.678416875E0,-4.980967610E0,-1.609375357E1,-1.135360880E0,1.688514100E1
8.688352875E0,-4.627274798E0,-1.678932197E1,-1.526579368E0,1.748208937E1
8.698288875E0,-4.032669100E0,-1.725681973E1,-1.763960536E0,1.780931790E1
8.708224875E0,-2.918702597E0,-1.768815713E1,-2.001986213E0,1.803878256E1
8.718159875E0,-1.329690168E0,-1.820102109E1,-2.456752388E0,1.841414883E1
8.728095875E0,7.480670428E-1,-1.855817370E1,-2.934870148E0,1.880369321E1
8.738031875E0,2.973251857E0,-1.831758183E1,-2.950875732E0,1.879046828E1
8.747967875E0,5.497391358E0,-1.809946198E1,-2.090177282E0,1.903104507E1
8.757903875E0,8.828748921E0,-1.731110177E1,9.350303015E-1,1.945495653E1
8.767839875E0,1.270986930E1,-1.459470874E1,5.684364849E0,2.017072891E1
8.777775875E0,1.599913977E1,-1.192244816E1,9.166304002E0,2.195764952E1
8.787711875E0,1.774466112E1,-9.184785297E0,1.079982602E1,2.271276120E1
8.797647875E0,1.840083683E1,-7.630389555E0,9.832997099E0,2.221489304E1
8.807582875E0,1.712901830E1,-6.951143655E0,7.309463954E0,1.987837844E1
8.817518875E0,1.494003945E1,-5.486557052E0,5.289733926E0,1.677165383E1
8.827454875E0,1.375044798E1,-4.790942750E0,4.261999236E0,1.517209905E1
8.837390875E0,1.378790525E1,-4.367891435E0,4.265060838E0,1.507897711E1
8.847326875E0,1.385726024E1,-2.854812703E0,5.424995812E0,1.515269602E1
8.857262875E0,1.458413697E1,-1.416065530E0,6.830529045E0,1.616658343E1
8.867198875E0,1.631511863E1,-5.975108877E-1,7.494030147E0,1.796386938E1
8.877134875E0,1.828965319E1,1.409538284E0,7.652883793E0,1.987623813E1
8.887070875E0,2.051115543E1,3.360709708E0,6.871463063E0,2.189106830E1
8.897005875E0,2.252192167E1,4.344088589E0,5.353394902E0,2.355349016E1
8.906941875E0,2.317456216E1,4.725221215E0,4.473653533E0,2.407076282E1
8.916877875E0,2.207950263E1,4.684316433E0,4.746717334E0,2.306466089E1
8.926813875E0,2.000341596E1,3.758540812E0,5.483279103E0,2.107912780E1
8.936749875E0,1.754798066E1,2.571135913E0,6.282564247E0,1.881523262E1
8.946685875E0,1.518456182E1,1.867848894E0,7.153032224E0,1.688862479E1
8.956621875E0,1.352964893E1,1.483350318E0,7.699005461E0,1.563734036E1
8.966557875E0,1.273086899E1,1.338623252E0,7.563696213E0,1.486863941E1
8.976493875E0,1.265137025E1,1.302700590E0,6.751105145E0,1.439901450E1
8.986429875E0,1.282162596E1,1.309077564E0,5.715752118E0,1.409885097E1
8.996364875E0,1.295029394E1,9.283717847E-1,4.865419613E0,1.386521891E1
9.006300875E0,1.300718501E1,1.419095850E-1,3.920786721E0,1.358600636E1
9.016236875E0,1.265846409E1,-5.650468540E-1,3.659493949E0,1.318893047E1
9.026172875E0,1.181083183E1,-1.360991045E0,3.919236917E0,1.251832509E1
9.036108875E0,1.084333632E1,-2.633115229E0,3.938277205E0,1.183305817E1
9.046044875E0,1.000914447E1,-3.916113919E0,3.791268848E0,1.139704526E1
9.055980875E0,9.529209103E0,-4.882068390E0,3.653528620E0,1.131320862E1
9.065916875E0,9.673559316E0,-5.570996693E0,3.646886475E0,1.174365935E1
9.075852875E0,1.036784308E1,-6.313310076E0,3.671600902E0,1.268190473E1
9.085787875E0,1.114417674E1,-7.111017641E0,3.634414072E0,1.371014999E1
9.095723875E0,1.155393909E1,-7.747373629E0,3.895943071E0,1.444623407E1
9.105659875E0,1.132208178E1,-8.052769024E0,4.274449713E0,1.453642133E1
9.115595875E0,1.063700445E1,-9.112142998E0,3.830200779E0,1.452058717E1
9.125531875E0,9.265263450E0,-1.057900241E1,3.011035687E0,1.438147193E1
9.135467875E0,7.653194865E0,-1.185118580E1,2.279779097E0,1.429053495E1
9.145403875E0,6.008815151E0,-1.254750732E1,1.446617525E0,1.398708339E1
9.155339875E0,4.595814439E0,-1.330658117E1,5.857603231E-1,1.409005777E1
9.165275875E0,3.375691152E0,-1.402666343E1,5.495505631E-2,1.442725192E1
9.175211875E0,2.252450965E0,-1.402662133E1,-1.831748477E-1,1.420750486E1
9.185146875E0,1.548605245E0,-1.366590660E1,-3.145074043E-1,1.375696538E1
9.195082875E0,1.207965757E0,-1.387635725E1,-6.979642984E-1,1.394631227E1
9.205018875E0,6.517101914E-1,-1.411653397E1,-1.135239404E0,1.417709512E1
9.214954875E0,1.241890132E-2,-1.382758679E1,-1.179398308E0,1.387779850E1
9.224890875E0,-6.665252817E-1,-1.347887990E1,-9.346236277E-1,1.352767462E1
9.234826875E0,-1.620794677E0,-1.339601316E1,-6.000186123E-1,1.350704136E1
9.244762875E0,-2.714841762E0,-1.335088669E1,-3.647358638E-1,1.362899752E1
9.254698875E0,-3.576564352E0,-1.330855986E1,-4.257767753E-1,1.378734434E1
9.264634875E0,-4.382184953E0,-1.327633001E1,-6.633094592E-1,1.399658755E1
9.274570875E0,-5.109092385E0,-1.327951557E1,-1.047557847E0,1.426694558E1
9.284505875E0,-5.901696500E0,-1.321163174E1,-1.270294152E0,1.452552519E1
9.294441875E0,-6.528125085E0,-1.288439348E1,-1.027900166E0,1.448035191E1
9.304377875E0,-7.017835827E0,-1.231260713E1,-9.244401169E-1,1.420228515E1
9.314313875E0,-7.723814612E0,-1.171477026E1,-1.218130556E0,1.408463689E1
9.324249875E0,-8.617773778E0,-1.119263963E1,-1.798905251E0,1.423998830E1
9.334185875E0,-9.374617492E0,-1.084630437E1,-2.228785529E0,1.450838573E1
9.344121875E0,-9.991815662E0,-1.072236211E1,-2.047054067E0,1.479850870E1
9.354057875E0,-1.061985223E1,-1.037042989E1,-1.474937929E0,1.491651834E1
9.363993875E0,-1.089255935E1,-9.764671215E0,-8.837586987E-1,1.465529538E1
9.373929875E0,-1.081219171E1,-9.360621597E0,-3.945104706E-1,1.430665456E1
9.383865875E0,-1.061426346E1,-9.131934654E0,-3.766004491E-1,1.400702136E1
9.393800875E0,-1.053566870E1,-8.948490542E0,-6.742903841E-1,1.383945322E1
9.403736875E0,-1.058098813E1,-8.962321545E0,-7.361761451E-1,1.388605317E1
9.413672875E0,-1.070509996E1,-9.204194545E0,-8.310039496E-1,1.414238063E1
9.423608875E0,-1.079141422E1,-9.594599685E0,-1.210869484E0,1.449058897E1
9.433544875E0,-1.089049762E1,-1.000117121E1,-1.645655576E0,1.487731650E1
9.443480875E0,-1.078662652E1,-1.023525630E1,-1.932182007E0,1.499483613E1
9.453416875E0,-1.031658171E1,-1.049186253E1,-2.022362444E0,1.485264244E1
9.463352875E0,-9.704400455E0,-1.087450666E1,-1.891691208E0,1.469723712E1
9.473288875E0,-9.198026317E0,-1.123654052E1,-1.549702767E0,1.460359921E1
9.483224875E0,-8.755530086E0,-1.153359779E1,-1.209802367E0,1.453089147E1
9.493159875E0,-8.064224305E0,-1.188886760E1,-9.156733865E-1,1.439497635E1
9.503095875E0,-7.464722732E0,-1.237512439E1,-6.019556487E-1,1.446472052E1
9.513031875E0,-7.012805468E0,-1.264942312E1,-3.922610468E-1,1.446862864E1
9.522967875E0,-6.507169833E0,-1.309365715E1,-4.952270792E-1,1.462984506E1
9.532903875E0,-5.949225007E0,-1.379082886E1,-7.425180352E-1,1.503767175E1
9.542839875E0,-5.423603005E0,-1.424340335E1,-8.525369060E-1,1.526488872E1
9.552775875E0,-4.883560014E0,-1.458203665E1,-7.772768817E-1,1.539769823E1
9.562712417E0,-4.450283089E0,-1.540241271E1,-7.677997877E-1,1.605082095E1
9.572648417E0,-3.753251714E0,-1.648372777E1,-7.715829362E-1,1.692322428E1
9.582584417E0,-2.800002365E0,-1.717864713E1,-9.145583224E-1,1.742935304E1
9.592519417E0,-1.673939728E0,-1.771947482E1,-1.160685171E0,1.783617258E1
9.602455417E0,-5.155893499E-1,-1.838872256E1,-1.668684250E0,1.847147685E1
9.612391417E0,9.131953365E-1,-1.866770609E1,-1.964996289E0,1.879304091E1
9.622327417E0,3.457383771E0,-1.843894430E1,-1.327530792E0,1.880719297E1
9.632263417E0,6.797711547E0,-1.687408204E1,1.078546117E0,1.822379732E1
9.642199417E0,1.044038832E1,-1.474193929E1,4.551744559E0,1.862914010E1
9.652135417E0,1.307903911E1,-1.277170594E1,7.604930778E0,1.979931082E1
9.662071417E0,1.384143768E1,-1.076000882E1,9.395572159E0,1.989070041E1
9.672007417E0,1.345084835E1,-8.868883624E0,9.596770756E0,1.875314446E1
9.681943417E0,1.292708868E1,-7.431708183E0,8.291692103E0,1.706142041E1
9.691879417E0,1.241840080E1,-6.560712787E0,6.186179913E0,1.534693626E1
9.701814417E0,1.233167256E1,-6.146805933E0,4.021391867E0,1.435356973E1
9.711750417E0,1.249922686E1,-5.615768239E0,3.455328475E0,1.413176634E1
9.721686417E0,1.290941723E1,-4.232828647E0,4.462391795E0,1.429974937E1
9.731622417E0,1.363180564E1,-3.147008886E0,5.301773343E0,1.496123626E1
9.741558417E0,1.467929807E1,-2.573262837E0,5.984608848E0,1.605985730E1
9.751494417E0,1.628585799E1,-2.092417935E0,6.389844866E0,1.761923667E1
9.761430417E0,1.805840750E1,-9.010500848E-1,7.001019820E0,1.938897242E1
9.771366417E0,1.955630277E1,1.135191018E0,8.088998373E0,2.119362006E1
9.781302417E0,2.091111901E1,2.738235010E0,9.204797977E0,2.301089166E1
9.791238417E0,2.146042282E1,3.697727138E0,9.727514498E0,2.385052352E1
9.801174417E0,2.088410721E1,3.915237129E0,9.100185442E0,2.311467912E1
9.811109417E0,2.003408110E1,3.301004666E0,7.610953410E0,2.168381076E1
9.821045417E0,1.878934454E1,2.779236271E0,6.305239749E0,2.001298756E1
9.830981417E0,1.762567846E1,2.300497536E0,5.783140109E0,1.869228557E1
9.840917417E0,1.665037225E1,2.050810610E0,6.022626860E0,1.782449871E1
9.850853417E0,1.588393793E1,1.971756547E0,6.567796104E0,1.730096106E1
9.860789417E0,1.516862933E1,1.459829308E0,6.760477062E0,1.667100679E1
9.870725417E0,1.459716457E1,8.816706580E-1,6.744759747E0,1.610423363E1
9.880661417E0,1.418367872E1,2.121507248E-1,6.283453023E0,1.551462316E1
9.890597417E0,1.372249595E1,-5.927021375E-1,5.425688707E0,1.476808346E1
9.900533417E0,1.330873177E1,-1.498549863E0,4.336148947E0,1.407729309E1
9.910469417E0,1.298245597E1,-2.675956316E0,3.474702639E0,1.370322822E1
9.920404417E0,1.251607737E1,-3.758779671E0,3.360255087E0,1.349340326E1
9.930340417E0,1.241518366E1,-5.117699486E0,3.620008872E0,1.390798683E1
9.940276417E0,1.241612156E1,-6.120511004E0,4.248323768E0,1.447995112E1
9.950212417E0,1.252654973E1,-7.052884623E0,4.857903602E0,1.517421685E1
9.960148417E0,1.244877358E1,-8.481016760E0,5.319977480E0,1.597503582E1
9.970084417E0,1.212108041E1,-9.304137493E0,5.873860245E0,1.637039398E1
9.980020417E0,1.169132293E1,-1.022662815E1,5.658879175E0,1.653160212E1
9.989956417E0,1.089994906E1,-1.156800632E1,4.569176863E0,1.653798769E1
9.999892417E0,9.848072391E0,-1.274811009E1,3.328359403E0,1.644921934E1
1.000982842E1,8.707261321E0,-1.328688190E1,2.432193789E0,1.607088040E1
1.001976442E1,7.504406615E0,-1.392963357E1,1.659333383E0,1.590924880E1
1.002970042E1,5.970301296E0,-1.485479991E1,1.261944328E0,1.605933004E1
1.003963542E1,4.877169592E0,-1.539635265E1,1.031460536E0,1.618327436E1
1.004957142E1,4.021367016E0,-1.571941833E1,6.449078330E-1,1.623845471E1
1.005950742E1,3.158103393E0,-1.583122645E1,4.072106230E-1,1.614828686E1
1.006944342E1,2.544626976E0,-1.649485853E1,-7.287297159E-2,1.669014065E1
1.007937942E1,1.810371641E0,-1.671456181E1,-4.744059482E-1,1.681900957E1
1.008931542E1,8.886077946E-1,-1.632074014E1,-6.808091524E-1,1.635908566E1
1.009925142E1,-1.684752399E-1,-1.611853992E1,-6.481112301E-1,1.613244436E1
1.010918742E1,-1.048577090E0,-1.614218489E1,-5.920171362E-1,1.618703590E1
1.011912342E1,-1.777763181E0,-1.613263755E1,-5.724658012E-1,1.624038649E1
1.012905942E1,-2.584363484E0,-1.611241437E1,-6.884704667E-1,1.633287553E1
1.013899542E1,-3.680076149E0,-1.611621506E1,-8.182312918E-1,1.655127943E1
1.014893142E1,-4.920801516E0,-1.596448333E1,-9.910884351E-1,1.673503127E1
1.015886642E1,-6.322728186E0,-1.569970503E1,-1.288159150E0,1.697400906E1
1.016880242E1,-7.978861388E0,-1.528494214E1,-1.680894991E0,1.732388794E1
1.017873842E1,-9.530298439E0,-1.447526182E1,-1.996813036E0,1.744554543E1
1.018867442E1,-1.025848495E1,-1.343570991E1,-1.949987948E0,1.701638232E1
1.019861042E1,-1.020672773E1,-1.229084964E1,-1.654583690E0,1.606175343E1
1.020854642E1,-1.005789972E1,-1.118445470E1,-1.314067578E0,1.509901147E1
1.021848242E1,-1.011706185E1,-1.030677710E1,-9.722101146E-1,1.447514377E1
1.022841842E1,-1.048489733E1,-9.926209903E0,-6.415401292E-1,1.445248382E1
1.023835442E1,-1.112147551E1,-9.680659005E0,-2.712827396E-1,1.474706651E1
1.024829042E1,-1.192323870E1,-9.455147100E0,3.289522927E-2,1.521724383E1
1.025822642E1,-1.260326871E1,-9.612426676E0,1.430509615E-1,1.585123315E1
1.026816242E1,-1.299914041E1,-9.856861925E0,1.308518789E-1,1.631418097E1
1.027809742E1,-1.300305337E1,-9.943863816E0,1.683927576E-1,1.637034455E1
1.028803342E1,-1.260778978E1,-1.002709659E1,5.769736391E-2,1.610907689E1
1.029796942E1,-1.195953120E1,-1.017070538E1,7.287264269E-2,1.569964792E1
1.030790542E1,-1.113240512E1,-1.035027103E1,8.031150699E-2,1.520082248E1
1.031784142E1,-1.036653448E1,-1.041301399E1,-8.878996968E-2,1.469366466E1
1.032777742E1,-9.560794592E0,-1.047020093E1,-2.429389099E-1,1.418072354E1
1.033771342E1,-8.678024658E0,-1.068440783E1,-3.613672463E-1,1.376935979E1
1.034764942E1,-7.863064299E0,-1.114358149E1,-5.407668392E-1,1.364916178E1
1.035758542E1,-7.285765774E0,-1.178637409E1,-6.733191615E-1,1.387279193E1
1.036752142E1,-6.833749691E0,-1.252118901E1,-7.618945384E-1,1.428498485E1
1.037745742E1,-6.220684333E0,-1.342380030E1,-8.620093954E-1,1.482020203E1
1.038739342E1,-5.321130551E0,-1.401897318E1,-6.103838618E-1,1.500728515E1
1.039732842E1,-4.470945979E0,-1.407615544E1,3.491197050E-2,1.476918172E1
1.040726442E1,-3.744939896E0,-1.427219270E1,3.610755799E-1,1.475975727E1
1.041720042E1,-3.002028344E0,-1.481121243E1,1.417207930E-1,1.511304974E1
1.042713642E1,-2.219215391E0,-1.514358220E1,-3.143615162E-1,1.530855388E1
1.043707242E1,-1.588445833E0,-1.506756839E1,-4.588485539E-1,1.515801172E1
1.044700842E1,-8.085459638E-1,-1.491705872E1,-2.935774420E-1,1.494183975E1
1.045694442E1,-2.329443008E-1,-1.444901484E1,4.518625930E-2,1.445096310E1
1.046688042E1,1.780132180E-1,-1.432082516E1,2.801096964E-1,1.432467045E1
1.047681642E1,8.300672257E-1,-1.463872892E1,6.446531868E-1,1.467640875E1
1.048675242E1,1.765416493E0,-1.451278691E1,1.203922846E0,1.466925729E1
1.049668842E1,3.199056122E0,-1.398492952E1,1.673902890E0,1.444348173E1
1.050662442E1,5.294608750E0,-1.307667566E1,1.932145462E0,1.423957564E1
1.051655942E1,7.922531651E0,-1.193274393E1,1.917911585E0,1.445113388E1
1.052649542E1,1.053134995E1,-1.054262689E1,1.394392241E0,1.496665103E1
1.053643142E1,1.212810409E1,-8.762507569E0,1.028546868E0,1.499767836E1
1.054636742E1,1.248901178E1,-7.740062855E0,7.645301709E-1,1.471286833E1
1.055630342E1,1.231068690E1,-7.322224917E0,9.174398303E-1,1.435303751E1
1.056623887E1,1.238182998E1,-6.715322524E0,1.569033662E0,1.417276038E1
1.057617487E1,1.320574242E1,-5.835641674E0,2.051004153E0,1.458262544E1
1.058611087E1,1.429519798E1,-4.347057221E0,3.050257348E0,1.524971022E1
1.059604687E1,1.539482419E1,-3.311237878E0,4.266242561E0,1.631458653E1
1.060598288E1,1.684208491E1,-3.100235839E0,4.570202465E0,1.772439102E1
1.061591888E1,1.757512344E1,-2.597544862E0,4.399329867E0,1.830263113E1
1.062585487E1,1.767152882E1,-7.176360860E-1,4.385279008E0,1.822165208E1
1.063579087E1,1.767460095E1,7.280084619E-1,4.537466828E0,1.826225945E1
1.064572687E1,1.742403840E1,1.183449551E0,5.157931838E0,1.820994036E1
1.065566187E1,1.668951819E1,1.374244490E0,6.060568857E0,1.780896011E1
1.066559787E1,1.581077055E1,1.737478496E0,6.697237086E0,1.725839742E1
1.067553387E1,1.533212099E1,2.503940587E0,6.658343747E0,1.690198787E1
1.068546987E1,1.540584502E1,3.073463193E0,5.982519053E0,1.681001996E1
1.069540587E1,1.599382465E1,3.243857196E0,4.598950886E0,1.695509911E1
1.070534188E1,1.665514591E1,3.286172327E0,3.664850876E0,1.736732409E1
1.071527788E1,1.687557191E1,3.583411441E0,3.902683741E0,1.768775580E1
1.072521387E1,1.645577223E1,3.750232504E0,4.959452780E0,1.759127214E1
1.073514987E1,1.544958921E1,3.637009651E0,5.822402408E0,1.690615319E1
1.074508587E1,1.417181472E1,3.264965060E0,5.873475498E0,1.568432477E1
1.075502187E1,1.313390587E1,2.450835590E0,5.078457652E0,1.429324353E1
1.076495787E1,1.235052165E1,1.505555120E0,4.001854565E0,1.306969476E1
1.077489388E1,1.209997547E1,7.266270572E-1,2.797857606E0,1.244047429E1
1.078482887E1,1.246214031E1,-2.206253868E-1,1.877008557E0,1.260463319E1
1.079476487E1,1.321750702E1,-1.103313168E0,1.939112712E0,1.340447500E1
1.080470087E1,1.436256258E1,-2.138090537E0,2.496904048E0,1.473394601E1
1.081463688E1,1.535659626E1,-3.304137020E0,3.308355493E0,1.605265044E1
1.082457287E1,1.571500719E1,-4.384108687E0,4.507995107E0,1.692642549E1
1.083450887E1,1.551193105E1,-5.510824751E0,5.570934128E0,1.737885214E1
1.084444487E1,1.489240686E1,-7.347080262E0,5.485804515E0,1.748877988E1
1.085438087E1,1.391689015E1,-9.272000611E0,4.736494939E0,1.738056993E1
1.086431687E1,1.284916752E1,-1.071383453E1,4.133054390E0,1.723280287E1
1.087425288E1,1.184230271E1,-1.231758194E1,3.528177765E0,1.744737793E1
1.088418887E1,1.086522596E1,-1.344518357E1,3.023740225E0,1.754904844E1
1.089412487E1,1.014522555E1,-1.380305655E1,2.473970099E0,1.730810503E1
1.090406087E1,9.196487914E0,-1.375343474E1,2.158552283E0,1.668507432E1
1.091399588E1,8.130079740E0,-1.399954522E1,1.947965396E0,1.630582816E1
1.092393187E1,6.958201244E0,-1.447365267E1,1.596031719E0,1.613847896E1
1.093386787E1,5.633386484E0,-1.511198735E1,1.076398727E0,1.616371984E1
1.094380387E1,4.552543289E0,-1.615661932E1,3.337099528E-1,1.678908457E1
1.095373987E1,3.551636209E0,-1.660350798E1,-4.416676801E-1,1.698486584E1
1.096367587E1,2.093936457E0,-1.705043757E1,-9.601429233E-1,1.720534410E1
1.097361188E1,3.917657876E-1,-1.726883225E1,-7.655186427E-1,1.729023037E1
1.098354787E1,-9.246123174E-1,-1.690151952E1,-2.953699060E-1,1.692936837E1
1.099348387E1,-2.082462173E0,-1.650758909E1,-5.470771909E-2,1.663851373E1
1.100341987E1,-3.059770475E0,-1.629431658E1,-3.087000959E-1,1.658198552E1
1.101335587E1,-3.916990416E0,-1.600346437E1,-7.576231474E-1,1.649326162E1
1.102329187E1,-4.406916044E0,-1.570786540E1,-1.256246216E0,1.636264340E1
1.103322787E1,-5.015457412E0,-1.513753150E1,-1.532476870E0,1.602024214E1
1.104316388E1,-5.947183160E0,-1.434710722E1,-1.816345741E0,1.563673831E1
1.105309987E1,-6.611314591E0,-1.368485041E1,-2.020255108E0,1.533186362E1
1.106303487E1,-7.212718263E0,-1.268273471E1,-1.817354971E0,1.470298757E1
1.107297088E1,-7.213859054E0,-1.149993069E1,-1.296513652E0,1.363704939E1
1.108290688E1,-6.929149354E0,-1.081414702E1,-8.276049632E-1,1.287026871E1
1.109284287E1,-6.955794531E0,-1.034377594E1,-7.255125779E-1,1.248611817E1
1.110277887E1,-7.501271923E0,-9.860785407E0,-6.842867839E-1,1.240856227E1
1.111271487E1,-8.728144652E0,-9.512204230E0,-7.073610663E-1,1.292914916E1
1.112265087E1,-1.029245026E1,-9.480067348E0,-9.393902779E-1,1.402457355E1
1.113258687E1,-1.165619519E1,-9.387579015E0,-1.234981062E0,1.501728019E1
1.114252288E1,-1.240551588E1,-9.269902630E0,-1.202427859E0,1.553298914E1
1.115245887E1,-1.263597687E1,-9.162902677E0,-7.854623258E-1,1.562829639E1
1.116239487E1,-1.250331524E1,-8.953930791E0,-2.372250839E-1,1.538057360E1
1.117233087E1,-1.219153702E1,-8.922228942E0,2.362847785E-1,1.510945316E1
1.118226687E1,-1.187995995E1,-9.076782546E0,5.322691172E-1,1.496010495E1
1.119220287E1,-1.163388923E1,-9.368213037E0,7.872937468E-1,1.495762767E1
1.120213787E1,-1.149278189E1,-9.728085771E0,9.491680650E-1,1.508710073E1
1.121207387E1,-1.133198346E1,-1.019542624E1,7.902839398E-1,1.526384990E1
1.122200987E1,-1.099895646E1,-1.069715359E1,4.264818033E-1,1.534887699E1
1.123194587E1,-1.042193685E1,-1.123945478E1,1.526182488E-1,1.532858127E1
1.124188188E1,-9.683946894E0,-1.171143969E1,-3.895056926E-2,1.519664977E1
1.125181787E1,-8.941049960E0,-1.211638276E1,-1.517217245E-1,1.505895498E1
1.126175387E1,-8.328809643E0,-1.252047799E1,-2.037988544E-1,1.503904828E1
1.127168987E1,-7.842254643E0,-1.292818445E1,-3.356875543E-1,1.512453627E1
1.128162587E1,-7.437775254E0,-1.334901090E1,-4.563746700E-1,1.528806301E1
1.129156187E1,-7.016873960E0,-1.382622907E1,-4.616604799E-1,1.551174590E1
1.130149787E1,-6.605118881E0,-1.444359798E1,-4.185817764E-1,1.588774146E1
1.131143388E1,-6.184369615E0,-1.517335622E1,-5.349120587E-1,1.639400187E1
1.132136987E1,-5.535117009E0,-1.563915711E1,-7.119751042E-1,1.660504935E1
1.133130587E1,-4.657691429E0,-1.587552496E1,-7.618489301E-1,1.656220987E1
1.134124187E1,-3.805455070E0,-1.645921040E1,-6.727155827E-1,1.690679276E1
1.135117787E1,-2.865471885E0,-1.694497368E1,-7.785732825E-1,1.720317525E1
1.136111287E1,-1.821146890E0,-1.761339931E1,-1.258304290E0,1.775195034E1
1.137104887E1,-7.418461901E-1,-1.808336108E1,-1.685720259E0,1.817690668E1
1.138098487E1,5.712893414E-1,-1.811774856E1,-1.984536806E0,1.823506432E1
1.139092087E1,2.547556431E0,-1.812496519E1,-1.642642213E0,1.837668850E1
1.140085687E1,5.496734131E0,-1.793113233E1,-5.265666202E-1,1.876211249E1
1.141079288E1,8.857349406E0,-1.679206549E1,9.230391240E-1,1.900731709E1
1.142072887E1,1.203014101E1,-1.422707207E1,2.303615564E0,1.877339919E1
1.143066487E1,1.428230955E1,-1.188912254E1,3.096346563E0,1.883939922E1
1.144060087E1,1.503408724E1,-9.944890587E0,3.176608661E0,1.830342783E1
1.145053687E1,1.480750997E1,-9.996576465E0,2.227677189E0,1.800434498E1
1.146047287E1,1.415587053E1,-9.840410199E0,2.071399826E0,1.736413086E1
1.147040888E1,1.449876763E1,-8.478696585E0,3.205649443E0,1.709908614E1
1.148034488E1,1.487691876E1,-7.008216573E0,5.195787882E0,1.724627563E1
1.149028087E1,1.473331816E1,-4.426231737E0,6.923174669E0,1.686987074E1
1.150021687E1,1.479981269E1,-2.652875602E0,7.078393686E0,1.661853970E1
1.151015287E1,1.479837428E1,-2.033205813E0,5.814643738E0,1.602921985E1
1.152008787E1,1.473847540E1,-1.377964196E0,4.355821905E0,1.543031519E1
1.153002387E1,1.523911634E1,-9.452760851E-1,3.360883078E0,1.563392941E1
1.153995987E1,1.635731682E1,-7.017743441E-1,3.120618648E0,1.666711017E1
1.154989587E1,1.752073381E1,-9.203108132E-2,4.146440129E0,1.800493123E1
1.155983092E1,1.903399673E1,9.061701992E-1,5.668605434E0,1.988082653E1
1.156976692E1,2.084588747E1,2.222843296E0,6.475014825E0,2.194123683E1
1.157970292E1,2.210677404E1,3.502489192E0,6.712650347E0,2.336742527E1
1.158963892E1,2.227466865E1,4.361619419E0,6.655001478E0,2.365319497E1
1.159957492E1,2.145473933E1,4.935892010E0,6.210368675E0,2.287438630E1
1.160951092E1,2.041685387E1,4.851906112E0,5.118085402E0,2.160054891E1
1.161944692E1,1.944533782E1,4.627285031E0,3.955663608E0,2.037597125E1
1.162938292E1,1.844789288E1,4.458011061E0,3.159593264E0,1.924010509E1
1.163931892E1,1.776948372E1,3.903523986E0,2.558439853E0,1.837219817E1
1.164925492E1,1.739208688E1,3.143727429E0,2.173750366E0,1.780710248E1
1.165919092E1,1.721899994E1,2.324281670E0,2.202199409E0,1.751416359E1
1.166912692E1,1.731783425E1,1.246801501E0,2.495101936E0,1.754102138E1
1.167906192E1,1.744513282E1,-3.057494447E-1,3.079513891E0,1.771749270E1
1.168899792E1,1.719392006E1,-1.793885709E0,4.000691262E0,1.774413829E1
1.169893392E1,1.662724183E1,-3.314020568E0,4.866530876E0,1.763890660E1
1.170886992E1,1.612211374E1,-4.978148668E0,5.269820648E0,1.767697726E1
1.171880592E1,1.560884865E1,-6.508562055E0,5.141882401E0,1.767587313E1
1.172874192E1,1.547380370E1,-8.082590994E0,4.603447394E0,1.805432375E1
1.173867792E1,1.518772400E1,-9.247888448E0,4.140599930E0,1.825746337E1
1.174861392E1,1.443082532E1,-1.029473184E1,4.096762185E0,1.819378145E1
1.175854992E1,1.321292163E1,-1.163147901E1,4.221377460E0,1.810228245E1
1.176848592E1,1.178023803E1,-1.278438622E1,4.011679934E0,1.784119152E1
1.177842192E1,1.044835223E1,-1.408592146E1,3.232447524E0,1.783339464E1
1.178835792E1,8.998194798E0,-1.516343700E1,2.365692236E0,1.779027350E1
1.179829392E1,7.897150642E0,-1.572729804E1,1.517365033E0,1.766395450E1
1.180822992E1,6.897096087E0,-1.644231077E1,8.305393884E-1,1.784963063E1
1.181816592E1,5.775727009E0,-1.740267267E1,5.168292519E-1,1.834336804E1
1.182810192E1,4.462109667E0,-1.763438614E1,5.261277866E-1,1.819776930E1
1.183803792E1,3.412301154E0,-1.758744703E1,4.907144174E-1,1.792213416E1
1.184797292E1,2.465665591E0,-1.776006151E1,4.168819177E-1,1.793524692E1
1.185790892E1,1.459065662E0,-1.768124923E1,3.857858402E-1,1.774554247E1
1.186784492E1,4.753046653E-1,-1.793227137E1,9.170641467E-2,1.793880378E1
1.187778092E1,-4.901647791E-1,-1.791624766E1,-1.138780332E-1,1.792331331E1
1.188771692E1,-1.292565904E0,-1.763619176E1,-3.890341146E-1,1.768777357E1
1.189765292E1,-2.176288642E0,-1.727670728E1,-6.618149109E-1,1.742580975E1
1.190758892E1,-3.064092152E0,-1.677042026E1,-7.443429512E-1,1.706428149E1
1.191752492E1,-3.836840293E0,-1.625104952E1,-6.287534380E-1,1.670967638E1
1.192746092E1,-4.664139154E0,-1.566535848E1,-4.105861475E-1,1.635011411E1
1.193739692E1,-5.758080112E0,-1.499409930E1,-3.678799117E-1,1.606592157E1
1.194733292E1,-6.758138176E0,-1.434918883E1,-2.764341732E-1,1.586341917E1
1.195726892E1,-7.861711253E0,-1.370810946E1,-2.983232250E-1,1.580530815E1
1.196720492E1,-8.805154821E0,-1.289680478E1,-6.031081349E-1,1.562760585E1
1.197714092E1,-9.028054774E0,-1.196197417E1,-6.971073890E-1,1.500268501E1
1.198707692E1,-8.929899904E0,-1.110478521E1,-6.689401817E-1,1.426558264E1
1.199701292E1,-8.663707750E0,-1.043973226E1,-5.258266550E-1,1.357660986E1
1.200694892E1,-8.453496255E0,-9.851097740E0,-3.845503235E-1,1.298667026E1
1.201688492E1,-8.348419451E0,-9.244796441E0,-2.555291895E-1,1.245903944E1
1.202681992E1,-8.503556022E0,-8.890268646E0,2.850289589E-1,1.230563217E1
1.203675592E1,-9.002831640E0,-8.639785622E0,7.275000465E-1,1.249904514E1
1.204669192E1,-9.701329497E0,-8.386790049E0,7.409416258E-1,1.284535075E1
1.205662792E1,-1.042684149E1,-8.284296545E0,6.317349333E-1,1.333220468E1
1.206656392E1,-1.097192478E1,-8.447946078E0,4.042817527E-1,1.385331621E1
1.207649992E1,-1.125981478E1,-8.765153434E0,2.042957763E-2,1.426925930E1
1.208643592E1,-1.126525269E1,-9.033282770E0,-3.043849969E-1,1.444294866E1
1.209637192E1,-1.111880684E1,-9.198132151E0,-5.332151967E-1,1.444014609E1
1.210630792E1,-1.055573166E1,-9.311776881E0,-5.818616921E-1,1.408798150E1
1.211624392E1,-9.804808842E0,-9.439466622E0,-6.112503827E-1,1.362392871E1
1.212617992E1,-9.167619041E0,-9.668037205E0,-7.259265608E-1,1.334328114E1
1.213611592E1,-8.601646573E0,-9.996277088E0,-7.261967021E-1,1.320762057E1
1.214605192E1,-8.154932746E0,-1.056056030E1,-5.504124427E-1,1.335407487E1
1.215598792E1,-7.733537947E0,-1.123823973E1,-2.955814107E-1,1.364525594E1
1.216592392E1,-7.396472277E0,-1.190436974E1,7.492055688E-3,1.401505894E1
1.217585992E1,-7.063454050E0,-1.249521451E1,2.226900570E-1,1.435522064E1
1.218579592E1,-6.804774399E0,-1.311240215E1,3.960822022E-1,1.477825855E1
1.219573192E1,-6.620316380E0,-1.370132202E1,5.327795792E-1,1.522624931E1
1.220566792E1,-6.379638551E0,-1.429093770E1,5.143298962E-1,1.565871079E1
1.221560292E1,-5.824430223E0,-1.482261450E1,3.863009799E-1,1.593057175E1
1.222553892E1,-4.952741346E0,-1.514524865E1,1.271668905E-1,1.593500471E1
1.223547492E1,-3.663607758E0,-1.535102270E1,-6.439670160E-2,1.578227064E1
1.224541092E1,-2.409993666E0,-1.536833045E1,-2.498890932E-1,1.555815204E1
1.225534692E1,-1.219474247E0,-1.525307950E1,-4.137813585E-1,1.530734355E1
1.226528292E1,4.244026065E-2,-1.548186233E1,-4.509711850E-1,1.548848726E1
1.227521892E1,1.099171878E0,-1.592009945E1,-2.619296797E-1,1.596014889E1
1.228515492E1,2.101324414E0,-1.627926701E1,-3.577677369E-2,1.641436501E1
1.229509092E1,3.143181299E0,-1.580177753E1,8.719704196E-1,1.613493397E1
1.230502692E1,4.907623061E0,-1.458729447E1,2.541866505E0,1.559919900E1
1.231496292E1,7.520045578E0,-1.353588908E1,4.053532550E0,1.600632703E1
1.232489892E1,1.011370789E1,-1.235609404E1,4.562087114E0,1.660640798E1
1.233483492E1,1.212570556E1,-1.084833920E1,4.082391190E0,1.677453774E1
1.234477092E1,1.357955024E1,-8.635628251E0,2.988078934E0,1.636786106E1
1.235470692E1,1.462608841E1,-7.252507396E0,1.660263967E0,1.640968623E1
1.236464292E1,1.499470273E1,-6.639063722E0,1.114806747E0,1.643657723E1
1.237457892E1,1.426191446E1,-5.542483916E0,1.701429535E0,1.539533028E1
1.238451492E1,1.300962681E1,-4.203555731E0,2.923695242E0,1.398099655E1
1.239445092E1,1.198655235E1,-3.363811948E0,4.027519164E0,1.308486067E1
1.240438692E1,1.142889521E1,-3.052018822E0,4.382684598E0,1.261516504E1
1.241432192E1,1.127131626E1,-3.046557522E0,4.257883381E0,1.242793844E1
1.242425792E1,1.222967958E1,-3.138802612E0,3.798599210E0,1.318508629E1
1.243419392E1,1.454387305E1,-2.542269378E0,3.235199516E0,1.511469129E1
1.244412992E1,1.683283929E1,-6.761071140E-1,3.118221874E0,1.713256861E1
1.245406592E1,1.889989434E1,1.643078708E0,3.197256642E0,1.923871523E1
1.246400192E1,2.044529941E1,3.532461728E0,3.142306556E0,2.098481937E1
1.247393792E1,2.105980435E1,4.803341770E0,2.825172874E0,2.178460588E1
1.248387392E1,2.069737053E1,5.351672312E0,2.398112708E0,2.151214745E1
1.249380992E1,1.966718001E1,5.421982741E0,1.987832589E0,2.049749607E1
1.250374592E1,1.868820993E1,5.009114352E0,1.536537761E0,1.940879608E1
1.251368192E1,1.797592902E1,4.528501877E0,1.599444738E0,1.860643912E1
1.252361792E1,1.758066192E1,4.522030179E0,2.200259595E0,1.828577515E1
1.253355392E1,1.730452716E1,4.529337444E0,2.948251501E0,1.812880980E1
1.254348992E1,1.696829472E1,4.103402283E0,3.416944427E0,1.778866058E1
1.255342592E1,1.653427227E1,3.550828417E0,3.533224204E0,1.727640632E1
1.256336204E1,1.584992234E1,3.096626645E0,3.404906180E0,1.650462120E1
1.257329804E1,1.494626907E1,2.411906290E0,3.001116470E0,1.543421366E1
1.258323404E1,1.393733318E1,1.560133615E0,2.706187883E0,1.428309231E1
1.259317004E1,1.310197657E1,3.831981549E-1,2.667677244E0,1.337628994E1
1.260310604E1,1.262923503E1,-1.029512097E0,2.786055879E0,1.297380360E1
1.261304204E1,1.220297651E1,-2.101230566E0,3.202825822E0,1.279007033E1
1.262297704E1,1.167548282E1,-2.874126348E0,3.870507098E0,1.263163990E1
1.263291304E1,1.136078216E1,-3.731900606E0,4.326524431E0,1.271665314E1
1.264284904E1,1.122239728E1,-4.694127477E0,4.481048214E0,1.296367334E1
1.265278504E1,1.115546303E1,-5.719516556E0,4.467119854E0,1.330835771E1
1.266272104E1,1.154284692E1,-6.713787630E0,4.358327144E0,1.404661079E1
1.267265704E1,1.211001046E1,-7.745559822E0,4.389629336E0,1.503046560E1
1.268259304E1,1.222865865E1,-9.052455790E0,4.613984369E0,1.589892764E1
1.269252904E1,1.194843201E1,-1.033566469E1,4.808818565E0,1.651410694E1
1.270246504E1,1.118607438E1,-1.152364349E1,4.621878988E0,1.671180375E1
1.271240104E1,1.010772853E1,-1.252957742E1,4.253904351E0,1.665089152E1
1.272233704E1,9.085130031E0,-1.336500187E1,3.775768172E0,1.659576114E1
1.273227304E1,8.148690843E0,-1.405268354E1,3.236719208E0,1.656367799E1
1.274220904E1,7.348142116E0,-1.467459691E1,2.623880721E0,1.661998006E1
1.275214504E1,6.597993464E0,-1.543914959E1,2.106711161E0,1.692155696E1
1.276208104E1,5.699236658E0,-1.573073620E1,2.035142704E0,1.685464820E1
1.277201704E1,4.877978847E0,-1.572904753E1,2.105380043E0,1.660211549E1
1.278195304E1,4.221097378E0,-1.596108843E1,1.880952943E0,1.661661792E1
1.279188904E1,3.931006192E0,-1.673803838E1,1.205204263E0,1.723563912E1
1.280182504E1,3.232189955E0,-1.671637913E1,8.603476167E-1,1.704771483E1
1.281176104E1,2.482221397E0,-1.645047933E1,8.582701010E-1,1.665882111E1
1.282169704E1,1.822772416E0,-1.671111780E1,1.026944658E0,1.684157275E1
1.283163304E1,9.415638341E-1,-1.687842067E1,1.296107855E0,1.695427741E1
1.284156904E1,-1.282915659E-1,-1.673063464E1,1.280264239E0,1.678003786E1
1.285150404E1,-1.111962223E0,-1.640574579E1,1.126821021E0,1.648195015E1
1.286144004E1,-2.000989117E0,-1.605206994E1,1.034491147E0,1.620935158E1
1.287137604E1,-3.026626118E0,-1.564897342E1,7.551819348E-1,1.595685227E1
1.288131204E1,-4.279207007E0,-1.526677835E1,2.800032771E-1,1.585763336E1
1.289124804E1,-5.613642776E0,-1.474917464E1,-1.249713707E-1,1.578184893E1
1.290118404E1,-6.478583965E0,-1.400854525E1,-2.900874217E-1,1.543682419E1
1.291112004E1,-6.628029442E0,-1.314004545E1,-3.056304904E-1,1.472022346E1
1.292105604E1,-6.413370554E0,-1.213934127E1,-1.253397636E-1,1.372991764E1
1.293099204E1,-6.218697449E0,-1.112092938E1,2.904651153E-1,1.274486713E1
1.294092804E1,-6.209964048E0,-1.034638146E1,6.766304398E-1,1.208590467E1
1.295086404E1,-6.586408961E0,-9.788983353E0,9.437031841E-1,1.183619676E1
1.296080004E1,-7.476352844E0,-9.378657918E0,1.126546787E0,1.204674993E1
1.297073604E1,-8.700279161E0,-9.172822478E0,1.084446834E0,1.268903285E1
1.298067204E1,-9.897213560E0,-9.071849250E0,8.284387761E-1,1.345137896E1
1.299060804E1,-1.083082445E1,-9.196318345E0,5.486758196E-1,1.421900399E1
1.300054404E1,-1.131760632E1,-9.421317449E0,2.395417142E-1,1.472775664E1
1.301048004E1,-1.152320846E1,-9.519886302E0,1.607218319E-1,1.494785603E1
1.302041604E1,-1.146025850E1,-9.512058050E0,3.494430560E-1,1.489761336E1
1.303035204E1,-1.102482922E1,-9.435374156E0,5.552363956E-1,1.452175720E1
1.304028804E1,-1.052954082E1,-9.166342594E0,7.785234350E-1,1.398210160E1
1.305022404E1,-9.933003198E0,-8.873439190E0,1.032549287E0,1.335921531E1
1.306016004E1,-9.206723465E0,-8.772322120E0,1.265781856E0,1.277965555E1
1.307009604E1,-8.478390191E0,-8.890958617E0,1.365107923E0,1.236105841E1
1.308003204E1,-7.704863201E0,-9.252839870E0,1.253997962E0,1.210588590E1
1.308996804E1,-6.954752557E0,-9.718164216E0,1.059564008E0,1.199724863E1
1.309990304E1,-6.116954142E0,-1.024008727E1,8.594705343E-1,1.195889647E1
1.310983904E1,-5.270493663E0,-1.081342431E1,6.077654421E-1,1.204481745E1
1.311977504E1,-4.567158112E0,-1.128096767E1,4.601150608E-1,1.217911617E1
1.312971104E1,-4.100319631E0,-1.172357383E1,4.719381309E-1,1.242889898E1
1.313964704E1,-4.019023160E0,-1.198300543E1,5.663659859E-1,1.265170885E1
1.314958304E1,-3.877676954E0,-1.208815357E1,8.182476640E-1,1.272121710E1
1.315951904E1,-3.330071760E0,-1.247349561E1,1.096348257E0,1.295683025E1
1.316945504E1,-2.641898332E0,-1.309445120E1,1.075802311E0,1.340155325E1
1.317939104E1,-1.884258227E0,-1.356148235E1,7.334911036E-1,1.371139095E1
1.318932704E1,-1.089635069E0,-1.358008585E1,3.875235961E-1,1.362924102E1
1.319926304E1,-2.849856895E-1,-1.361929728E1,6.282127898E-2,1.362242349E1
1.320919904E1,4.477037609E-1,-1.386942713E1,-2.132000077E-1,1.387828886E1
1.321913504E1,1.096798493E0,-1.421326797E1,-4.619768143E-1,1.426300725E1
1.322907104E1,1.707182903E0,-1.465082798E1,-6.622107674E-1,1.476481483E1
1.323900704E1,2.456878395E0,-1.451325820E1,-1.417249592E-1,1.472042801E1
1.324894304E1,3.723970027E0,-1.408380243E1,1.164169527E0,1.461426475E1
1.325887904E1,5.849884906E0,-1.310625322E1,2.869475766E0,1.463656100E1
1.326881504E1,7.991565633E0,-1.097269895E1,4.490110229E0,1.429777372E1
1.327875104E1,9.634705737E0,-9.088510891E0,4.725563862E0,1.406270026E1
1.328868704E1,1.070936258E1,-7.880272654E0,3.744701622E0,1.381346930E1
1.329862304E1,1.082985966E1,-7.407669110E0,1.801961298E0,1.324411139E1
1.330855904E1,1.036520833E1,-7.336667540E0,2.181292105E-1,1.270085882E1
1.331849504E1,1.015451561E1,-6.836094425E0,5.275121149E-1,1.225253620E1
1.332843104E1,1.018739801E1,-6.326852227E0,2.470667299E0,1.224403260E1
1.333836704E1,1.019704007E1,-6.273642565E0,4.187095234E0,1.268345315E1
1.334830304E1,1.017426282E1,-5.937503094E0,5.407533102E0,1.296190500E1
1.335823904E1,1.018435746E1,-4.698419040E0,6.258551486E0,1.284389914E1
1.336817404E1,1.026442689E1,-3.202372371E0,6.693096088E0,1.266535366E1
1.337811004E1,1.028710707E1,-2.212755387E0,6.436052488E0,1.233465159E1
1.338804604E1,1.091607802E1,-1.896611932E0,5.203889784E0,1.224084822E1
1.339798204E1,1.182151469E1,-1.419962407E0,4.180137925E0,1.261895621E1
1.340791804E1,1.308671182E1,1.104563887E-1,4.482368807E0,1.383350487E1
1.341785404E1,1.404413024E1,1.342698323E0,5.383897487E0,1.510055579E1
1.342779004E1,1.421262594E1,1.803333201E0,5.777797508E0,1.544777301E1
1.343772604E1,1.389864099E1,2.094567518E0,5.712091177E0,1.517192868E1
1.344766204E1,1.311373765E1,2.319212719E0,5.656170745E0,1.446862573E1
1.345759804E1,1.200087803E1,2.348260809E0,5.514485108E0,1.341435605E1
1.346753404E1,1.092808587E1,2.047509565E0,5.203895046E0,1.227582501E1
1.347747004E1,9.624853764E0,1.900754100E0,5.053311117E0,1.103569796E1
1.348740604E1,8.531258960E0,2.040475364E0,4.999237236E0,1.009644948E1
1.349734204E1,8.394461596E0,1.913382916E0,5.190364589E0,1.005325342E1
1.350727804E1,8.685960499E0,2.105739354E0,5.525224105E0,1.050752823E1
1.351721404E1,8.703810879E0,2.751811660E0,5.363536313E0,1.058755463E1
1.352715004E1,8.526601068E0,3.254032229E0,4.587537705E0,1.021455597E1
1.353708604E1,8.175787425E0,3.383341649E0,3.396605473E0,9.477733351E0
1.354702204E1,7.676620565E0,3.374713205E0,2.220082533E0,8.674558143E0
1.355695804E1,7.027543375E0,3.318683430E0,1.507206373E0,7.916545752E0
1.356689450E1,6.257879641E0,3.064714296E0,1.294525598E0,7.087265188E0
1.357683050E1,5.479048643E0,2.516782535E0,1.248670564E0,6.157381467E0
1.358676650E1,4.551914129E0,1.812060317E0,1.218926947E0,5.048689704E0
1.359670250E1,3.411817004E0,1.158177885E0,1.384358127E0,3.859834026E0
1.360663850E1,2.328132647E0,5.028432968E-1,1.478285460E0,2.803280382E0
1.361657450E1,1.334445709E0,-1.606352931E-1,1.240999017E0,1.829379022E0
1.362651050E1,6.496478784E-1,-7.371435669E-1,9.230987656E-1,1.348159610E0
1.363644650E1,4.504367495E-1,-1.082870133E0,6.892434686E-1,1.360351994E0
1.364638250E1,5.608830518E-1,-1.319838195E0,1.155596924E-1,1.438720508E0
1.365631750E1,4.272490311E-1,-1.720330075E0,-8.160128582E-1,1.951398034E0
1.366625350E1,2.822445148E-1,-2.153098585E0,-1.652635982E0,2.728864447E0
1.367618950E1,1.814274073E-1,-2.490478835E0,-1.855149618E0,3.110784602E0
1.368612550E1,1.485631317E-1,-2.615154337E0,-1.143054646E0,2.857914823E0
1.369606150E1,1.988947946E-1,-2.690245450E0,-1.390157980E-1,2.701167361E0
1.370599750E1,-2.592322129E-1,-3.160405442E0,2.461812276E-1,3.180561129E0
1.371593350E1,-7.087205440E-1,-3.430929213E0,1.997531658E-1,3.509054203E0
1.372586950E1,-9.797881061E-1,-3.359065179E0,-1.475655967E-1,3.502153511E0
1.373580550E1,-1.325783059E0,-3.337867852E0,-6.751978719E-1,3.654443143E0
1.374574150E1,-1.623691095E0,-3.501598077E0,-1.224591730E0,4.049343992E0
1.375567750E1,-1.592414339E0,-3.589983419E0,-1.661620229E0,4.264357649E0
1.376561350E1,-1.446759612E0,-3.239283212E0,-1.669308148E0,3.920798234E0
1.377554950E1,-1.362994155E0,-2.737977440E0,-1.661596255E0,3.480686088E0
1.378548550E1,-1.153855038E0,-2.355017267E0,-1.920272398E0,3.250374419E0
1.379542150E1,-9.763943821E-1,-2.020262709E0,-2.176906693E0,3.126296556E0
1.380535750E1,-7.001809779E-1,-1.706817159E0,-2.240581702E0,2.902358451E0
1.381529350E1,-3.280097947E-1,-1.274553556E0,-1.979584215E0,2.377147630E0
1.382522950E1,-2.661187711E-1,-1.019828962E0,-1.793982480E0,2.080683410E0
1.383516550E1,-3.675091982E-1,-1.051583728E0,-1.879133728E0,2.184498779E0
1.384510150E1,-6.069608653E-1,-1.167387542E0,-2.018176423E0,2.409197219E0
1.385503750E1,-8.945319012E-1,-1.215522991E0,-2.239654334E0,2.700691577E0
1.386497350E1,-9.844880980E-1,-1.203500530E0,-2.490486436E0,2.936009713E0
1.387490950E1,-1.025044971E0,-1.042368224E0,-2.678113062E0,3.051153598E0
1.388484550E1,-1.208455461E0,-8.194989681E-1,-2.864934525E0,3.215554850E0
1.389478150E1,-1.339969574E0,-5.933418229E-1,-2.952418812E0,3.296111318E0
1.390471750E1,-1.206040853E0,-4.314838770E-1,-2.765210847E0,3.047475005E0
1.391465350E1,7.058238333E-1,-5.485343170E-1,-8.028934604E-1,1.201546957E0
1.392458950E1,8.820288000E-1,-6.987422705E-3,-1.941681978E0,2.132639804E0
1.393452550E1,-1.493841685E0,2.116516650E-2,-1.992996558E0,2.490792288E0
1.394446150E1,-6.402426320E-1,-4.163451433E-1,-1.552215900E0,1.729921417E0
1.395439750E1,-1.231926477E-1,-5.777709800E-1,-2.090212365E0,2.172091956E0
1.396433350E1,-4.345071799E-1,-5.906488878E-1,-1.727382694E0,1.876569628E0
1.397426950E1,-3.916184378E-1,-5.911207581E-1,-1.350392236E0,1.525237011E0
1.398420550E1,-6.842796211E-1,1.802550405E-1,-1.525693515E0,1.681805928E0
1.399414050E1,-2.652282402E-1,1.821705884E-1,-1.469106501E0,1.503930202E0
1.400407650E1,-7.233941317E-2,1.621491373E-2,-1.452464740E0,1.454355437E0
1.401401250E1,2.023636553E-1,5.547078073E-2,-1.391044418E0,1.406780945E0
1.402394850E1,2.513913891E-1,2.517904615E-1,-1.161696739E0,1.214963119E0
1.403388450E1,1.440093201E-1,3.513778996E-1,-1.008029573E0,1.077185561E0
1.404382050E1,-3.317549363E-2,2.301984483E-1,-1.019117648E0,1.045319434E0
1.405375650E1,-3.123915893E-1,8.626046419E-2,-1.088384349E0,1.135609909E0
1.406369250E1,-5.786594644E-1,-4.702330828E-2,-9.632106650E-1,1.124647835E0
1.407362850E1,-5.445494395E-1,-2.142326260E-1,-7.746777213E-1,9.708528632E-1
1.408356450E1,-1.428337374E-1,-2.612530106E-1,-5.416077054E-1,6.180562423E-1
1.409350050E1,2.583723798E-1,-1.865320265E-2,-2.549023497E-1,3.634273470E-1
1.410343650E1,3.182543001E-1,2.126316583E-1,-2.249704528E-1,4.439704115E-1
1.411337250E1,4.177801962E-1,2.189560068E-1,-2.107956326E-1,5.166399365E-1
1.412330850E1,4.814689462E-1,2.043642801E-1,8.370698512E-2,5.297017694E-1
1.413324450E1,1.951835668E-1,1.673654383E-1,2.684737372E-1,3.717337250E-1
1.414318050E1,-1.756396870E-1,-8.774741113E-2,1.193428409E-1,2.297642738E-1
1.415311650E1,-4.728368479E-1,-3.416417009E-1,-2.159517074E-1,6.220360732E-1
1.416305250E1,-4.500192583E-1,-4.035777479E-1,-5.378958929E-1,8.091503711E-1
1.417298850E1,3.892930001E-3,-1.933007634E-1,-8.617222971E-1,8.831453206E-1
1.418292450E1,3.389809254E-1,1.777933627E-1,-8.931522506E-1,9.717198621E-1
1.419286050E1,2.647461373E-1,2.561027831E-1,-6.225776088E-1,7.233823551E-1
1.420279650E1,7.036553934E-2,4.143103123E-2,-3.086926407E-1,3.193101719E-1
1.421273250E1,-1.684591600E-1,-1.669526249E-1,2.376396149E-1,3.357443285E-1
1.422266850E1,-2.863727953E-1,-2.569050211E-1,5.343688524E-1,6.584524570E-1
1.423260450E1,-1.614458634E-1,-2.175865889E-1,-1.101520119E0,1.134352354E0
1.424254050E1,5.169523358E-2,-8.149264455E-3,-2.346206975E-1,2.403865208E-1
1.425247650E1,1.857204330E-1,-3.158607423E-2,1.082965150E0,1.099228491E0
1.426241250E1,5.519289181E-1,-1.374458206E-1,1.091110321E0,1.230462766E0
1.427234850E1,4.392434245E-1,-1.806596678E-1,8.999665958E-1,1.017601383E0
1.428228450E1,2.185665822E-1,-1.548325163E-1,8.520094872E-1,8.931207226E-1
1.429222050E1,6.415959701E-2,-1.390625757E-1,6.499595350E-1,6.677591265E-1
1.430215650E1,2.071579336E-1,7.811880112E-3,2.777480060E-1,3.465824429E-1