"Time (s)","Linear Acceleration x (m/s^2)","Linear Acceleration y (m/s^2)","Linear Acceleration z (m/s^2)","Absolute acceleration (m/s^2)"
5.836291646E-3,-3.017113575E-1,6.010279879E-1,-4.721100390E-1,8.216765023E-1
1.577229166E-2,-1.167162205E0,3.651638800E-1,-3.065817958E-1,1.260795253E0
2.570729167E-2,-1.944874850E0,5.798563895E-1,-2.079445302E-2,2.029582229E0
3.564329166E-2,-2.176118488E0,1.135258846E0,3.004363722E-1,2.472764917E0
4.557829167E-2,-1.982193535E0,1.410035005E0,5.046965718E-1,2.484352743E0
5.551429166E-2,-1.946938625E0,1.465722717E0,5.130773860E-1,2.490413921E0
6.545029164E-2,-1.683476098E0,1.432737112E0,3.230200732E-1,2.234092516E0
7.538529165E-2,-1.392886437E0,1.344195356E0,7.589335084E-2,1.937202515E0
8.532129167E-2,-1.306193717E0,1.123003082E0,-1.477872062E-1,1.728906882E0
9.525629165E-2,-1.274596533E0,9.238217738E-1,-4.958930039E-1,1.650440203E0
1.051922917E-1,-1.087152633E0,8.332903571E-1,-7.817499286E-1,1.577151425E0
1.151272916E-1,-6.372963662E-1,7.306727457E-1,-7.154290545E-1,1.204934874E0
1.250632917E-1,-9.020908892E-2,5.527058668E-1,-4.337388557E-1,7.083437371E-1
1.349992917E-1,6.480452297E-1,4.160726631E-1,-2.811271119E-1,8.198240871E-1
1.449342917E-1,1.184397896E0,2.648747760E-1,-2.969391525E-1,1.249451833E0
1.548702916E-1,1.112098536E0,-8.976353109E-3,-3.831639487E-1,1.176290075E0
1.648052917E-1,1.642324125E0,-3.776623034E-1,-6.885195833E-1,1.820416591E0
1.747412916E-1,1.408730198E0,-7.384398946E-1,-1.533942182E0,2.209704249E0
1.846762917E-1,5.009185396E-1,-1.280057833E0,-2.577023474E0,2.920704953E0
1.946122917E-1,1.435101141E-1,-1.431239640E0,-2.320204407E0,2.729906692E0
2.045482917E-1,-9.333780245E-1,-1.687807130E0,-2.557262224E-1,1.945580465E0
2.144832917E-1,-6.161342695E-2,-1.211016834E0,9.108546960E-1,1.516579791E0
2.244192917E-1,8.733858843E-1,-2.373308820E-1,6.608903199E-1,1.120671614E0
2.343542917E-1,1.341517624E0,-1.150510139E0,1.087350562E0,2.075011894E0
2.442902917E-1,2.291464757E0,-2.462956868E0,1.537427123E0,3.698736193E0
2.542252917E-1,2.108221205E0,-2.350410538E0,9.130380464E-1,3.286740760E0
2.641612916E-1,1.516605188E0,-1.033336907E0,3.263945013E-1,1.863976885E0
2.740972917E-1,1.406022353E0,-7.124686092E-2,-4.738700509E-1,1.485438587E0
2.840322916E-1,2.389464384E0,-3.884431073E-1,-1.575605932E0,2.888418623E0
2.939682917E-1,3.042300457E0,-3.186293989E-1,-2.615164277E0,4.024450392E0
3.039032917E-1,6.341996808E-1,8.187654349E-1,-2.453240842E0,2.662888789E0
3.138392917E-1,-1.992913527E0,8.256812292E-1,-3.620046878E0,4.214047131E0
3.237742917E-1,-6.588078341E0,-1.590568373E-1,4.507460672E-1,6.605395319E0
3.337102917E-1,-6.916139883E0,-4.294475842E-1,3.341791919E0,7.693178104E0
3.436462916E-1,-5.305023810E0,-2.359813446E-1,5.827038081E0,7.883738809E0
3.535812917E-1,-1.186199496E0,-6.051029125E-1,3.121661206E0,3.393816063E0
3.635172917E-1,1.701944967E0,-5.235529652E-1,1.353741521E0,2.236814807E0
3.734522916E-1,1.654631198E0,-2.637994730E-1,9.200079274E-1,1.911493958E0
3.833882917E-1,1.990453312E0,3.852391255E-1,3.665584409E-1,2.060261794E0
3.933242917E-1,3.222704309E0,1.061937393E0,-5.029716432E-1,3.430235351E0
4.032592917E-1,3.574727741E0,1.448941793E0,-6.982715696E-1,3.919909939E0
4.131952917E-1,3.040211831E0,1.447333516E0,-3.178096193E-1,3.382109584E0
4.231302917E-1,2.085381103E0,1.175235967E0,-4.054851097E-1,2.427841037E0
4.330662916E-1,6.834154757E-1,7.267390314E-1,-9.167399186E-1,1.354849959E0
4.430012917E-1,-1.103535508E0,3.159958130E-1,-1.088363884E0,1.581828030E0
4.529372916E-1,-2.675211673E0,-1.413853821E-1,-1.379786189E0,3.013396298E0
4.628732917E-1,-3.340694396E0,-3.680693614E-1,-1.799002900E0,3.812102509E0
4.728082917E-1,-3.133032287E0,-1.513538615E-1,-1.513206786E0,3.482613111E0
4.827442917E-1,-2.424290108E0,1.013708389E-1,-1.162131772E0,2.690354778E0
4.926792917E-1,-1.297245284E0,1.008486825E-1,-1.464294242E0,1.958870443E0
5.026152917E-1,-3.089795928E-1,7.023733914E-1,9.597450203E-1,1.228782842E0
5.125502917E-1,-8.022131369E-2,1.983257728E0,1.019146884E0,2.231234422E0
5.224862917E-1,9.771947198E-1,1.095685621E0,3.326166989E0,3.635769979E0
5.324222917E-1,1.398460880E0,2.180042262E-1,7.880485493E-1,1.619950367E0
5.423572916E-1,8.410658383E-1,4.018455103E-1,-9.223830664E-1,1.311358868E0
5.522932917E-1,9.719388038E-3,8.124288804E-1,6.874062735E-1,1.064266197E0
5.622282916E-1,-1.257101664E-1,1.155661682E0,9.448796439E-1,1.498050236E0
5.721642917E-1,-1.584779629E-1,1.148432257E0,1.159185945E0,1.639427940E0
5.820992917E-1,-1.839380555E-1,1.125988816E0,1.449073940E0,1.844315403E0
5.920352917E-1,-9.674773782E-2,1.291236101E0,1.803152668E0,2.219912237E0
6.019712916E-1,2.153965142E-1,1.672195211E0,2.304201747E0,2.855166926E0
6.119062917E-1,3.864736189E-1,1.923294824E0,2.973358861E0,3.562202654E0
6.218422917E-1,3.873403224E-1,1.986037787E0,3.614628264E0,4.142452909E0
6.317772917E-1,4.129537582E-1,1.697007139E0,3.971423024E0,4.338497997E0
6.417132917E-1,4.804218560E-1,1.292149728E0,4.224946015E0,4.444167516E0
6.516492917E-1,5.665811634E-1,1.098477228E0,4.490591455E0,4.657582855E0
6.615842917E-1,7.496159703E-1,1.089166707E0,4.622667777E0,4.808041763E0
6.715202917E-1,9.956787917E-1,1.188112705E0,4.704476756E0,4.953290785E0
6.814552917E-1,1.229063388E0,1.173126584E0,5.025823356E0,5.305254301E0
6.913912916E-1,1.676476250E0,9.090268564E-1,5.693650813E0,6.004545113E0
7.013262917E-1,2.352524307E0,6.930185772E-1,6.589417938E0,7.031008045E0
7.112622916E-1,3.140627820E0,4.896092936E-1,7.399758412E0,8.053551075E0
7.211982917E-1,3.789682206E0,1.109516479E-1,7.711668776E0,8.593243671E0
7.311332916E-1,4.120157479E0,-2.383711016E-1,7.606460409E0,8.653944672E0
7.410692917E-1,3.898754997E0,-5.485699850E-1,7.313720727E0,8.306126078E0
7.510042917E-1,3.614961555E0,-8.254145962E-1,7.076720213E0,7.989319450E0
7.609402917E-1,4.457682155E0,-1.263475714E0,7.243305632E0,8.598417155E0
7.708755000E-1,5.459185651E0,-1.755833199E0,7.843710015E0,9.716452284E0
7.808115000E-1,6.311448323E0,-2.309671525E0,8.305969834E0,1.068447927E1
7.907475000E-1,6.905896731E0,-2.851046219E0,8.062366059E0,1.099188886E1
8.006825000E-1,6.975567475E0,-3.408165126E0,7.386276487E0,1.071593260E1
8.106185000E-1,6.777282545E0,-4.092508920E0,6.479707215E0,1.023067904E1
8.205535000E-1,6.375440835E0,-4.850419165E0,5.544641538E0,9.742477186E0
8.304895000E-1,5.566821781E0,-5.545680588E0,4.734857719E0,9.174037037E0
8.404245000E-1,4.778682600E0,-6.133649113E0,3.742646034E0,8.629302299E0
8.503605000E-1,4.053771701E0,-6.644538471E0,2.523976949E0,8.182506714E0
8.602965000E-1,3.340630077E0,-7.089738454E0,1.329679059E0,7.949355134E0
8.702315000E-1,2.619995831E0,-7.486743931E0,3.773863149E-1,7.940915141E0
8.801675000E-1,1.964175047E0,-7.910348977E0,-2.959834251E-1,8.155931017E0
8.901025000E-1,1.234385523E0,-8.279608832E0,-8.145370209E-1,8.410653993E0
9.000385000E-1,6.611791724E-1,-8.631415917E0,-1.192869415E0,8.738503080E0
9.099745000E-1,1.243679380E-1,-8.881202538E0,-1.258628372E0,8.970806613E0
9.199095000E-1,-7.449542776E-1,-9.144490964E0,-1.359672351E0,9.274986834E0
9.298455000E-1,-1.636387739E0,-9.535063920E0,-1.754384697E0,9.832246664E0
9.397805000E-1,-2.484862877E0,-1.006916497E1,-1.998120473E0,1.056196535E1
9.497165000E-1,-3.372668141E0,-1.043340674E1,-2.050935595E0,1.115514247E1
9.596515000E-1,-4.171788393E0,-1.046830877E1,-2.004930725E0,1.144591867E1
9.695875000E-1,-4.773093832E0,-1.037308921E1,-1.855042030E0,1.156825766E1
9.795235000E-1,-5.253268935E0,-1.029954994E1,-1.626074420E0,1.167568763E1
9.894585000E-1,-5.911515729E0,-1.023931193E1,-1.612386088E0,1.193269944E1
9.993945000E-1,-6.725247003E0,-1.032952862E1,-1.605524966E0,1.243003697E1
1.009329500E0,-7.707614901E0,-1.041695034E1,-1.502133329E0,1.304517483E1
1.019265500E0,-8.696066827E0,-1.052033730E1,-1.454955654E0,1.372646972E1
1.029200500E0,-9.516090875E0,-1.062100881E1,-1.482720573E0,1.433737333E1
1.039136500E0,-1.007565304E1,-1.062757874E1,-1.415858831E0,1.471288110E1
1.049072500E0,-1.038653429E1,-1.063384345E1,-1.211264756E0,1.491394929E1
1.059007500E0,-1.063192088E1,-1.071566588E1,-9.918000412E-1,1.512768668E1
1.068943500E0,-1.093586149E1,-1.093040370E1,-1.064663365E0,1.549839668E1
1.078878500E0,-1.078656454E1,-1.119855467E1,-1.349406395E0,1.560700160E1
1.088814500E0,-1.065266564E1,-1.150594865E1,-1.670991561E0,1.576890460E1
1.098749500E0,-1.054540431E1,-1.203248691E1,-2.020415322E0,1.612663546E1
1.108685500E0,-9.951317847E0,-1.258587441E1,-2.254417384E0,1.620232574E1
1.118621500E0,-9.079599735E0,-1.301363098E1,-2.306610800E0,1.603478020E1
1.128556500E0,-8.233720468E0,-1.343632036E1,-2.283324848E0,1.592301573E1
1.138492500E0,-7.443288594E0,-1.394231618E1,-2.294930256E0,1.597051754E1
1.148427500E0,-6.216116488E0,-1.427186525E1,-2.068815357E0,1.570370144E1
1.158363500E0,-4.652166688E0,-1.443992826E1,-1.841294787E0,1.528216443E1
1.168299500E0,-3.160593138E0,-1.438109124E1,-1.900788306E0,1.484648546E1
1.178234500E0,-1.574345858E0,-1.437148661E1,-1.855827895E0,1.457608621E1
1.188170500E0,3.720021987E-1,-1.441145232E1,-1.481331859E0,1.449215953E1
1.198105500E0,2.048666729E0,-1.398053475E1,-9.178853881E-1,1.415962220E1
1.208041500E0,3.569301817E0,-1.301110966E1,1.630697814E-1,1.349279370E1
1.217976500E0,5.041162357E0,-1.188906289E1,1.989805732E0,1.306608056E1
1.227912500E0,6.894937295E0,-1.110821402E1,3.841363406E0,1.362676234E1
1.237848500E0,8.902943071E0,-1.026011515E1,5.216613910E0,1.455147480E1
1.247783500E0,1.005727758E1,-8.871271627E0,6.278857112E0,1.480784722E1
1.257719500E0,1.082106311E1,-7.629372724E0,7.157573757E0,1.505103309E1
1.267654500E0,1.195093228E1,-6.654112701E0,8.138966339E0,1.591680783E1
1.277590500E0,1.371759599E1,-5.133831369E0,9.538596223E0,1.747894396E1
1.287525500E0,1.577841674E1,-3.705197541E0,1.113642450E1,1.966486395E1
1.297461500E0,1.805746493E1,-2.552970952E0,1.294694934E1,2.236544651E1
1.307397500E0,2.020765453E1,-1.664284513E0,1.509982631E1,2.528089989E1
1.317332500E0,2.194847588E1,-5.835877901E-1,1.722543655E1,2.790684204E1
1.327268500E0,2.342461015E1,9.514305720E-1,1.888478397E1,3.010403040E1
1.337203500E0,2.438764657E1,2.180258025E0,1.963108164E1,3.138296029E1
1.347139500E0,2.416896538E1,2.693352368E0,1.949864455E1,3.117034125E1
1.357075500E0,2.286946380E1,2.576211003E0,1.863155860E1,2.961054227E1
1.367010500E0,2.106366351E1,2.035613697E0,1.719051464E1,2.726417865E1
1.376946500E0,1.879656469E1,1.292281437E0,1.530140673E1,2.427166833E1
1.386881500E0,1.638347726E1,2.971315259E-1,1.330308687E1,2.110636716E1
1.396817500E0,1.439478776E1,-8.009708959E-1,1.137576507E1,1.836462632E1
1.406752500E0,1.296229711E1,-1.923125839E0,9.677355913E0,1.629020493E1
1.416688500E0,1.190503866E1,-3.220513065E0,8.591532644E0,1.503050508E1
1.426624500E0,1.105940030E1,-4.635203038E0,8.069168125E0,1.445361257E1
1.436559500E0,1.044205595E1,-6.205181610E0,7.653143409E0,1.435658090E1
1.446495500E0,9.932536590E0,-7.672935650E0,7.215776356E0,1.447745326E1
1.456430500E0,9.432892597E0,-9.154207283E0,6.276501853E0,1.456617483E1
1.466366500E0,8.982843518E0,-1.066316490E1,5.207046111E0,1.488314122E1
1.476302500E0,8.408450475E0,-1.198651259E1,4.626955540E0,1.535536522E1
1.486237500E0,7.720327333E0,-1.330658467E1,4.573062923E0,1.604934747E1
1.496173500E0,6.909987443E0,-1.479175640E1,4.404730355E0,1.690992707E1
1.506108500E0,5.881286209E0,-1.629282554E1,3.943115484E0,1.776496133E1
1.516044500E0,4.856280999E0,-1.765882984E1,3.236394687E0,1.859817160E1
1.525979500E0,3.803727218E0,-1.862728545E1,2.468352094E0,1.917125103E1
1.535915500E0,2.668420132E0,-1.909034517E1,1.894580902E0,1.936881983E1
1.545851500E0,1.613956358E0,-1.910041408E1,1.657583896E0,1.924001709E1
1.555786500E0,6.950532621E-1,-1.883822259E1,1.654837459E0,1.892353604E1
1.565722500E0,-1.647248358E-2,-1.833450952E1,1.729348820E0,1.841589417E1
1.575657500E0,-7.388997781E-1,-1.767023191E1,1.780214919E0,1.777504525E1
1.585593500E0,-1.999951529E0,-1.692288056E1,1.786897263E0,1.713407991E1
1.595528500E0,-3.548302712E0,-1.651885200E1,1.595765378E0,1.697083942E1
1.605464500E0,-5.021761880E0,-1.627187379E1,9.732684606E-1,1.705694054E1
1.615400500E0,-6.639588218E0,-1.582750762E1,-8.197686709E-2,1.716394038E1
1.625335500E0,-8.544101200E0,-1.518090614E1,-1.485343049E0,1.748335839E1
1.635271500E0,-9.833877690E0,-1.428253291E1,-3.024174673E0,1.760231602E1
1.645206500E0,-1.052770128E1,-1.296894305E1,-4.168767137E0,1.721640490E1
1.655142500E0,-1.121897549E1,-1.159891353E1,-4.699798983E0,1.680738875E1
1.665078500E0,-1.186762232E1,-1.098554762E1,-4.739894511E0,1.685198256E1
1.675013500E0,-1.207459388E1,-1.077224821E1,-4.375535792E0,1.676253150E1
1.684949500E0,-1.199490919E1,-1.044947606E1,-3.455672876E0,1.627916065E1
1.694884500E0,-1.177343421E1,-1.027494954E1,-2.403378711E0,1.581026787E1
1.704820500E0,-1.153745695E1,-1.024319682E1,-1.703778069E0,1.552220518E1
1.714755500E0,-1.129405842E1,-1.023891900E1,-1.345778198E0,1.530367069E1
1.724691500E0,-1.099963123E1,-1.024104972E1,-1.119924304E0,1.507067407E1
1.734627500E0,-1.063395572E1,-1.029732099E1,-9.959370925E-1,1.483602792E1
1.744562500E0,-1.024719164E1,-1.036148131E1,-1.004779764E0,1.460735479E1
1.754498500E0,-9.774910274E0,-1.065224347E1,-1.258831270E0,1.451219549E1
1.764433500E0,-9.301742474E0,-1.096857199E1,-1.749948415E0,1.448772943E1
1.774369125E0,-8.745209751E0,-1.120083509E1,-2.261135250E0,1.438923670E1
1.784304125E0,-8.191164433E0,-1.157627428E1,-2.675135660E0,1.443127339E1
1.794240125E0,-7.657896026E0,-1.194838056E1,-2.989573774E0,1.450326587E1
1.804176125E0,-7.086961026E0,-1.227938325E1,-3.192609567E0,1.453275698E1
1.814111125E0,-6.388010010E0,-1.265432543E1,-3.320571496E0,1.455901161E1
1.824047125E0,-5.573997484E0,-1.321993946E1,-3.515978427E0,1.477153857E1
1.833982125E0,-4.560896914E0,-1.373342791E1,-3.855609855E0,1.497579881E1
1.843918125E0,-3.290394309E0,-1.406647946E1,-3.939322102E0,1.497367015E1
1.853853125E0,-2.131308936E0,-1.429006413E1,-3.586866269E0,1.488670616E1
1.863789125E0,-1.163450319E0,-1.431223911E1,-2.746994432E0,1.461984211E1
1.873725125E0,3.409026128E-1,-1.424507565E1,-1.935673964E0,1.438002881E1
1.883660125E0,2.379823202E0,-1.371490978E1,-1.124540607E0,1.396520319E1
1.893596125E0,4.564682109E0,-1.265906635E1,4.486089098E-1,1.346438018E1
1.903531125E0,6.949376627E0,-1.180816199E1,2.710952779E0,1.396695350E1
1.913467125E0,8.818343800E0,-1.065968697E1,5.125025463E0,1.475323692E1
1.923403125E0,9.926799302E0,-9.293417208E0,6.993958138E0,1.529131774E1
1.933338125E0,1.073864076E1,-8.303378348E0,8.101610817E0,1.580824453E1
1.943274125E0,1.149053071E1,-7.302119266E0,9.426485803E0,1.655934408E1
1.953209125E0,1.235253893E1,-6.327505361E0,1.098067105E1,1.769739187E1
1.963145125E0,1.365155052E1,-5.603810098E0,1.243394855E1,1.929690638E1
1.973080125E0,1.519787944E1,-4.590170707E0,1.391065701E1,2.110809288E1
1.983016125E0,1.724093284E1,-3.456879741E0,1.523630734E1,2.326681852E1
1.992952125E0,1.943720201E1,-2.526064990E0,1.631710201E1,2.550360061E1
2.002887125E0,2.115737099E1,-1.357297797E0,1.718307230E1,2.728982555E1
2.012823125E0,2.223508066E1,-4.956363112E-2,1.784040109E1,2.850756355E1
2.022758125E0,2.287228683E1,7.671178561E-1,1.801605261E1,2.912572963E1
2.032694125E0,2.284313028E1,1.194751049E0,1.725687235E1,2.865372008E1
2.042629125E0,2.184189049E1,1.235830663E0,1.549970453E1,2.681112266E1
2.052565125E0,1.969102730E1,4.774503011E-1,1.329869444E1,2.376593757E1
2.062501125E0,1.758520170E1,-5.257883558E-1,1.156440794E1,2.105353422E1
2.072436125E0,1.614567100E1,-1.322505987E0,1.065455078E1,1.938946019E1
2.082372125E0,1.499829292E1,-2.046277849E0,1.018174726E1,1.824291700E1
2.092307125E0,1.402432455E1,-3.088785236E0,9.748817074E0,1.735689222E1
2.102243125E0,1.326036360E1,-4.568910523E0,9.314815679E0,1.683680425E1
2.112179125E0,1.231905193E1,-6.389592851E0,8.512808656E0,1.628047446E1
2.122114125E0,1.136627036E1,-8.452806283E0,7.304476279E0,1.593729618E1
2.132050125E0,1.049690868E1,-1.049344829E1,6.225959691E0,1.609534476E1
2.141985125E0,9.598714371E0,-1.205595880E1,5.579292138E0,1.638932460E1
2.151921125E0,8.884467623E0,-1.333632244E1,4.947025693E0,1.677093690E1
2.161856125E0,8.348559784E0,-1.440899532E1,4.110922971E0,1.715276317E1
2.171792125E0,7.721169332E0,-1.518271176E1,3.293537772E0,1.734873435E1
2.181728125E0,6.922598133E0,-1.597998079E1,2.640124286E0,1.761398328E1
2.191663125E0,6.031951414E0,-1.684821162E1,2.076944448E0,1.801555913E1
2.201599125E0,4.953412022E0,-1.763653674E1,1.567921522E0,1.838592116E1
2.211534125E0,3.957030103E0,-1.832584745E1,1.067983706E0,1.877858784E1
2.221470125E0,2.936359434E0,-1.924865854E1,5.961938024E-1,1.948046481E1
2.231405125E0,1.876296074E0,-1.948149349E1,1.942222846E-1,1.957260325E1
2.241341125E0,8.552146384E-1,-1.942913986E1,-9.034035891E-2,1.944816262E1
2.251277125E0,-4.315753859E-1,-1.933748008E1,-6.522101283E-2,1.934240541E1
2.261212125E0,-2.152776550E0,-1.893035366E1,5.004057388E-1,1.905893865E1
2.271148125E0,-4.214567208E0,-1.828425036E1,1.198895117E0,1.880196100E1
2.281083125E0,-6.335291514E0,-1.756879207E1,1.319146323E0,1.872267397E1
2.291019125E0,-8.354799348E0,-1.668835576E1,7.109796157E-1,1.867643923E1
2.300955125E0,-1.003520434E1,-1.563765438E1,-2.818603528E-1,1.858281480E1
2.310890125E0,-1.116832457E1,-1.443231519E1,-1.300630676E0,1.829521346E1
2.320826125E0,-1.202961359E1,-1.319381761E1,-2.175381739E0,1.798668152E1
2.330761125E0,-1.266348802E1,-1.215470073E1,-2.675727398E0,1.775556802E1
2.340697125E0,-1.304998078E1,-1.133263133E1,-2.790469649E0,1.750763411E1
2.350632125E0,-1.345886722E1,-1.077474731E1,-2.883349746E0,1.747998834E1
2.360568125E0,-1.356442934E1,-1.063853526E1,-2.849214871E0,1.747255566E1
2.370504125E0,-1.329329044E1,-1.063166712E1,-2.587015781E0,1.721733333E1
2.380439125E0,-1.274900238E1,-1.044427672E1,-2.030839153E0,1.660554984E1
2.390375125E0,-1.201081128E1,-1.030962353E1,-1.437889971E0,1.589388098E1
2.400310125E0,-1.125978438E1,-1.031148645E1,-1.072269569E0,1.530553034E1
2.410246125E0,-1.045895908E1,-1.032001754E1,-7.874288906E-1,1.471436819E1
2.420181125E0,-9.747768669E0,-1.041283390E1,-6.051249857E-1,1.427628383E1
2.430117125E0,-9.157628489E0,-1.051348319E1,-6.371178800E-1,1.395712748E1
2.440053125E0,-8.733193138E0,-1.067520198E1,-8.537809011E-1,1.381873878E1
2.449988125E0,-8.314657627E0,-1.104751408E1,-1.338106066E0,1.389142277E1
2.459924125E0,-7.944567468E0,-1.156701814E1,-1.922606899E0,1.416363224E1
2.469859125E0,-7.459716931E0,-1.216965089E1,-2.423542542E0,1.447830577E1
2.479795125E0,-6.816934268E0,-1.290720347E1,-2.904557305E0,1.488297509E1
2.489731125E0,-6.051100461E0,-1.366727251E1,-3.374251567E0,1.532304566E1
2.499666125E0,-5.019234713E0,-1.451785995E1,-3.867022158E0,1.584029151E1
2.509602125E0,-3.839795475E0,-1.532646205E1,-4.377444616E0,1.639531914E1
2.519537125E0,-2.753654995E0,-1.594379588E1,-4.431413247E0,1.677571656E1
2.529473125E0,-1.665130312E0,-1.651806145E1,-3.975687398E0,1.707117756E1
2.539408125E0,-7.027476132E-2,-1.677948345E1,-2.962647054E0,1.703916902E1
2.549344125E0,2.221830266E0,-1.610024047E1,-1.003989147E0,1.628380383E1
2.559280125E0,4.577664682E0,-1.459496602E1,1.729805780E0,1.539351406E1
2.569215125E0,7.187743635E0,-1.313145238E1,4.554975146E0,1.564757166E1
2.579151125E0,9.586731087E0,-1.159074614E1,6.899900411E0,1.654869888E1
2.589086125E0,1.106060365E1,-9.647377238E0,8.247509957E0,1.683538717E1
2.599022125E0,1.237944431E1,-8.058202842E0,8.129445902E0,1.686040229E1
2.608958125E0,1.360346068E1,-6.704940793E0,7.660507393E0,1.699099017E1
2.618893125E0,1.493379813E1,-5.399131238E0,8.525889462E0,1.802386573E1
2.628829125E0,1.647707013E1,-4.598574325E0,1.019691026E1,1.991526311E1
2.638764125E0,1.806380215E1,-3.663635240E0,1.184407559E1,2.190902320E1
2.648700125E0,1.966890143E1,-2.270393146E0,1.406090473E1,2.428434497E1
2.658635125E0,2.154341820E1,-1.183646894E0,1.666682865E1,2.726358496E1
2.668571125E0,2.322569723E1,-1.629317871E-1,1.894441621E1,2.997249513E1
2.678507125E0,2.454008114E1,7.690524074E-1,2.034225042E1,3.188438765E1
2.688442125E0,2.522452814E1,1.102705935E0,2.056854936E1,3.256620952E1
2.698378125E0,2.463729928E1,1.106953937E0,1.986456798E1,3.166737950E1
2.708313125E0,2.269929813E1,4.543575999E-1,1.788734838E1,2.890366427E1
2.718249125E0,1.996927992E1,-6.290735731E-1,1.476170054E1,2.484100797E1
2.728184125E0,1.728220600E1,-1.789546782E0,1.153994085E1,2.085778887E1
2.738120125E0,1.525937929E1,-2.931128515E0,9.026954913E0,1.797014428E1
2.748056125E0,1.395866032E1,-4.091559917E0,7.741885432E0,1.647792009E1
2.757991125E0,1.291815531E1,-5.459814227E0,7.404491149E0,1.585921805E1
2.767927125E0,1.190105203E1,-7.074324024E0,7.163727951E0,1.558846041E1
2.777862125E0,1.095647995E1,-8.955946911E0,6.694125198E0,1.565454407E1
2.787798125E0,9.991170130E0,-1.095914511E1,6.085556933E0,1.602998270E1
2.797733125E0,9.058261490E0,-1.268684063E1,5.485689325E0,1.652576212E1
2.807669125E0,8.176082709E0,-1.388929597E1,5.036783962E0,1.688579473E1
2.817605125E0,7.209408154E0,-1.487170772E1,4.369292720E0,1.709485230E1
2.827540125E0,6.370906904E0,-1.603556793E1,3.251176448E0,1.755841798E1
2.837476125E0,5.453450117E0,-1.699283665E1,2.039200087E0,1.796259872E1
2.847411125E0,4.222524683E0,-1.764305405E1,1.165927784E0,1.817873644E1
2.857347125E0,3.300833343E0,-1.810393860E1,5.703853619E-1,1.841123117E1
2.867283125E0,2.180737496E0,-1.821090757E1,2.462046164E-1,1.834266576E1
2.877218125E0,7.639053959E-1,-1.813347640E1,3.622741860E-1,1.815317494E1
2.887154125E0,-3.820523930E-1,-1.764802184E1,8.599961990E-1,1.767309346E1
2.897089125E0,-1.460872159E0,-1.672948040E1,1.650545310E0,1.687406180E1
2.907025125E0,-2.669359488E0,-1.582267081E1,2.390185638E0,1.622329741E1
2.916960125E0,-4.032779320E0,-1.522876677E1,2.553818214E0,1.595934315E1
2.926896125E0,-5.259644154E0,-1.463018848E1,2.126141751E0,1.569161401E1
2.936832125E0,-6.222328570E0,-1.396077935E1,1.373824806E0,1.534627406E1
2.946767125E0,-6.978046694E0,-1.320828245E1,2.642735361E-1,1.494060580E1
2.956703125E0,-7.853963692E0,-1.227666430E1,-8.298099482E-1,1.459759626E1
2.966638125E0,-8.784521166E0,-1.132207944E1,-1.755149367E0,1.443737664E1
2.976574125E0,-9.571509030E0,-1.070375159E1,-2.561899651E0,1.458586347E1
2.986509125E0,-1.015504887E1,-1.014703585E1,-3.209661510E0,1.471017611E1
2.996445125E0,-1.065095825E1,-9.554967842E0,-3.405540018E0,1.470843380E1
3.006381125E0,-1.096243358E1,-9.067846246E0,-3.157057911E0,1.457284462E1
3.016316125E0,-1.104767195E1,-8.706234550E0,-2.809972453E0,1.434383215E1
3.026252125E0,-1.117468868E1,-8.481443607E0,-2.770430949E0,1.429978463E1
3.036187125E0,-1.125066740E1,-8.368632106E0,-2.841491868E0,1.430683740E1
3.046123125E0,-1.127033977E1,-8.459778503E0,-2.871020308E0,1.438162607E1
3.056058125E0,-1.128338140E1,-8.620861693E0,-2.792047228E0,1.447167854E1
3.065994125E0,-1.108244300E1,-8.786570030E0,-2.839945865E0,1.442531276E1
3.075930125E0,-1.064786390E1,-8.954474582E0,-3.126746530E0,1.425959903E1
3.085865125E0,-1.010039261E1,-9.175421566E0,-3.413200163E0,1.406613761E1
3.095801125E0,-9.499208209E0,-9.561586305E0,-3.624664425E0,1.395697250E1
3.105736125E0,-8.794061483E0,-1.001999690E1,-3.838559082E0,1.387336985E1
3.115672125E0,-7.973475518E0,-1.057874514E1,-4.233856295E0,1.390725349E1
3.125608125E0,-7.132645322E0,-1.101205656E1,-4.679304492E0,1.392967729E1
3.135543125E0,-6.297308001E0,-1.137574636E1,-5.087595681E0,1.396235378E1
3.145479125E0,-5.676793875E0,-1.188763267E1,-5.433935035E0,1.425024382E1
3.155414125E0,-5.112537564E0,-1.256366903E1,-5.706205954E0,1.471545467E1
3.165350125E0,-4.381622744E0,-1.340617562E1,-5.985968910E0,1.532174880E1
3.175285125E0,-3.140256229E0,-1.416271528E1,-5.964511968E0,1.568499653E1
3.185221125E0,-1.514169238E0,-1.464482523E1,-5.588823684E0,1.574797017E1
3.195157125E0,-6.120280623E-3,-1.493602592E1,-4.866664485E0,1.570889337E1
3.205092125E0,1.134098466E0,-1.523025898E1,-4.100123749E0,1.581322177E1
3.215028125E0,2.175109844E0,-1.562324918E1,-3.586783823E0,1.617658913E1
3.224963125E0,2.821627123E0,-1.568573135E1,-2.781433362E0,1.617838432E1
3.234899125E0,3.314473727E0,-1.543407070E1,-1.612364454E0,1.586808097E1
3.244835125E0,4.590950140E0,-1.522850716E1,7.220024943E-2,1.590564259E1
3.254770125E0,6.604147074E0,-1.439446032E1,2.707210561E0,1.606686763E1
3.264706125E0,8.865534924E0,-1.265750748E1,6.551335022E0,1.678482040E1
3.274641125E0,1.141218621E1,-1.072674050E1,1.077204473E1,1.900889012E1
3.284577125E0,1.385755026E1,-8.846471246E0,1.363715233E1,2.136032951E1
3.294512125E0,1.584271740E1,-6.672160717E0,1.515040122E1,2.291384037E1
3.304448125E0,1.780689537E1,-4.657374803E0,1.716201414E1,2.516567885E1
3.314384125E0,2.008593889E1,-3.693498432E0,1.997274381E1,2.856566763E1
3.324319125E0,2.222324122E1,-2.975592497E0,2.215136257E1,3.151839883E1
3.334255125E0,2.389941108E1,-1.962025318E0,2.314121665E1,3.332487511E1
3.344190125E0,2.495340444E1,-1.189189762E0,2.337764063E1,3.421404167E1
3.354126125E0,2.509983977E1,-6.044722903E-1,2.265834189E1,3.381963632E1
3.364061125E0,2.393256011E1,-5.934634450E-1,2.076318679E1,3.168958122E1
3.373997125E0,2.132095503E1,-1.075651160E0,1.827695304E1,2.810315216E1
3.383933125E0,1.802602796E1,-1.785140905E0,1.564070779E1,2.393232443E1
3.393868125E0,1.552228063E1,-2.554019358E0,1.301234694E1,2.041532227E1
3.403804125E0,1.397359644E1,-3.253905052E0,1.097454082E1,1.806349473E1
3.413739125E0,1.284425352E1,-3.976347549E0,9.340386722E0,1.637159163E1
3.423675125E0,1.206540907E1,-5.167219555E0,7.691991141E0,1.521318447E1
3.433610125E0,1.131673977E1,-6.705198655E0,6.237714933E0,1.455806909E1
3.443546125E0,1.079982719E1,-8.330329919E0,5.257162596E0,1.461740136E1
3.453482125E0,1.035462604E1,-9.863859873E0,4.887317435E0,1.511290454E1
3.463417125E0,9.860443929E0,-1.150630182E1,4.720222138E0,1.587147860E1
3.473353125E0,9.234814074E0,-1.308044127E1,4.760086116E0,1.670443518E1
3.483288125E0,8.363424575E0,-1.444091060E1,4.888020270E0,1.738906299E1
3.493224125E0,7.382564090E0,-1.580730666E1,4.942020476E0,1.813275387E1
3.503160125E0,6.223945910E0,-1.714799837E1,4.744636018E0,1.884948067E1
3.513095125E0,4.874216164E0,-1.837244275E1,4.009795961E0,1.942635064E1
3.523031125E0,3.537336844E0,-1.922773603E1,2.923438257E0,1.976777873E1
3.532966125E0,2.544593939E0,-1.966768989E1,1.833902006E0,1.991622907E1
3.542902125E0,1.657561677E0,-1.966351498E1,1.063248339E0,1.976187818E1
3.552837125E0,6.568028238E-1,-1.935955449E1,6.883397815E-1,1.938291907E1
3.562773125E0,-1.956909589E-1,-1.889591824E1,8.550561789E-1,1.891626660E1
3.572709125E0,-8.919274051E-1,-1.823756619E1,1.415199558E0,1.831412419E1
3.582644125E0,-1.884076087E0,-1.756488379E1,1.888865833E0,1.776633613E1
3.592580125E0,-2.740799891E0,-1.714047183E1,1.809129546E0,1.745224078E1
3.602515125E0,-3.276070092E0,-1.649934802E1,1.440723385E0,1.688303303E1
3.612451125E0,-3.636431946E0,-1.540038255E1,1.477119379E0,1.589268076E1
3.622386125E0,-3.889830392E0,-1.427249207E1,2.114559002E0,1.494343235E1
3.632322125E0,-4.241266764E0,-1.349931943E1,2.876990315E0,1.443942665E1
3.642258125E0,-5.033655117E0,-1.290149776E1,3.158488140E0,1.420430835E1
3.652193125E0,-6.450538380E0,-1.238703868E1,3.028436708E0,1.429054238E1
3.662129125E0,-8.199398482E0,-1.221983638E1,2.474273862E0,1.492235128E1
3.672064125E0,-9.940201120E0,-1.215424465E1,1.857556917E0,1.581087534E1
3.682000125E0,-1.175416646E1,-1.182298351E1,1.320965538E0,1.672388466E1
3.691936125E0,-1.336696887E1,-1.140158170E1,8.875593889E-1,1.759146622E1
3.701871125E0,-1.414939181E1,-1.112522357E1,4.029784083E-1,1.800384070E1
3.711807125E0,-1.397582540E1,-1.079370516E1,4.084157707E-2,1.765869289E1
3.721742125E0,-1.326046301E1,-1.048669008E1,6.560166657E-2,1.690605961E1
3.731678125E0,-1.233040605E1,-1.053763336E1,2.652402270E-1,1.622192907E1
3.741613125E0,-1.128567585E1,-1.062302844E1,3.832697833E-1,1.550361597E1
3.751549125E0,-1.027410286E1,-1.075559300E1,5.587230903E-1,1.488462771E1
3.761485125E0,-9.351115193E0,-1.099194214E1,5.950114954E-1,1.444369018E1
3.771420500E0,-8.638215644E0,-1.130985175E1,5.188023949E-1,1.424081009E1
3.781356500E0,-8.064461702E0,-1.186251654E1,3.587694380E-1,1.434864302E1
3.791291500E0,-7.615240588E0,-1.231643238E1,8.645108342E-3,1.448055491E1
3.801227500E0,-7.254296059E0,-1.270293567E1,-2.734087142E-1,1.463093088E1
3.811162500E0,-6.690318661E0,-1.341438979E1,-4.376810485E-1,1.499659234E1
3.821098500E0,-5.926755327E0,-1.410588853E1,-5.536734349E-1,1.531042371E1
3.831034500E0,-4.681886038E0,-1.451793012E1,-6.846494575E-1,1.526954802E1
3.840969500E0,-3.025377153E0,-1.452346393E1,-7.857207727E-1,1.485601792E1
3.850905500E0,-1.243926133E0,-1.421104018E1,-1.016188485E0,1.430152629E1
3.860840500E0,6.173651084E-1,-1.382496724E1,-1.476793250E0,1.391731932E1
3.870776500E0,2.874359652E0,-1.357295692E1,-2.162068799E0,1.404142601E1
3.880711500E0,4.860545958E0,-1.317524335E1,-2.807825940E0,1.432116723E1
3.890647500E0,6.029364606E0,-1.294174648E1,-2.923473340E0,1.457356291E1
3.900583500E0,6.970743522E0,-1.290703156E1,-1.736034527E0,1.477147741E1
3.910518500E0,7.604082931E0,-1.228690277E1,2.917702138E-1,1.445251489E1
3.920454500E0,8.561582036E0,-1.165127418E1,1.380060423E0,1.452437412E1
3.930389500E0,9.551254860E0,-1.036182864E1,2.184060177E0,1.426057786E1
3.940325500E0,1.039719143E1,-8.418015350E0,4.311663732E0,1.405542657E1
3.950261500E0,1.151436279E1,-6.931467190E0,7.633699663E0,1.545636304E1
3.960196500E0,1.275210374E1,-5.921703333E0,1.030065273E1,1.742946261E1
3.970132500E0,1.342545740E1,-4.516102272E0,1.153021342E1,1.826427956E1
3.980067500E0,1.425892887E1,-3.236334461E0,1.161480977E1,1.867336926E1
3.990003500E0,1.537639493E1,-2.281164741E0,1.174535354E1,1.948308403E1
3.999938500E0,1.595904191E1,-1.432028137E0,1.251887468E1,2.033381288E1
4.009874500E0,1.683652654E1,-1.051134077E0,1.364424267E1,2.169651739E1
4.019810500E0,1.800474410E1,-6.787602881E-1,1.478581329E1,2.330776266E1
4.029745500E0,1.909276124E1,8.849293113E-2,1.600312757E1,2.491267659E1
4.039681500E0,1.999032522E1,7.887165937E-1,1.705984574E1,2.629208080E1
4.049616500E0,2.038123263E1,1.087927389E0,1.765981802E1,2.698976476E1
4.059552500E0,1.985161523E1,7.383960405E-1,1.735072367E1,2.637573635E1
4.069487500E0,1.841421058E1,-1.777433690E-1,1.597997728E1,2.438184607E1
4.079423500E0,1.628093815E1,-1.256671309E0,1.381085206E1,2.138662676E1
4.089359500E0,1.450917099E1,-2.192246863E0,1.154778080E1,1.867279386E1
4.099294500E0,1.352821169E1,-3.027805209E0,9.715902513E0,1.692864075E1
4.109230500E0,1.298665778E1,-3.824163821E0,8.368402895E0,1.591564250E1
4.119165500E0,1.244068922E1,-5.066236387E0,7.144749643E0,1.521462937E1
4.129101500E0,1.207855361E1,-6.787723333E0,5.944567115E0,1.507655543E1
4.139036500E0,1.189351964E1,-8.556363981E0,5.359349706E0,1.560095521E1
4.148972500E0,1.140187172E1,-1.031811135E1,5.472293939E0,1.632213532E1
4.158908500E0,1.088624436E1,-1.223379485E1,5.833862951E0,1.738418849E1
4.168843500E0,1.029712920E1,-1.381149759E1,6.048322449E0,1.825843750E1
4.178779500E0,9.430854843E0,-1.494538030E1,6.078851931E0,1.868844178E1
4.188714500E0,8.556422453E0,-1.619235751E1,5.826929907E0,1.921868671E1
4.198650500E0,7.351069817E0,-1.745084438E1,5.166116771E0,1.962801466E1
4.208586500E0,5.941167544E0,-1.852448439E1,4.094184439E0,1.988004879E1
4.218521500E0,4.419747467E0,-1.925411165E1,2.918927422E0,1.996935453E1
4.228457500E0,2.934318171E0,-1.974869488E1,1.692601116E0,2.003711733E1
4.238392500E0,1.712712322E0,-2.014144300E1,5.001810595E-1,2.022031876E1
4.248328500E0,3.746517183E-1,-2.012306169E1,-4.214483008E-1,2.013096109E1
4.258263500E0,-6.879275528E-1,-1.953868160E1,-7.428507417E-1,1.956489587E1
4.268199500E0,-1.278981653E0,-1.876954821E1,-5.669957310E-1,1.882161572E1
4.278135500E0,-1.899395499E0,-1.789818210E1,-2.002819003E-1,1.799979829E1
4.288070500E0,-2.991632871E0,-1.673790390E1,3.206672998E-1,1.700617892E1
4.298006500E0,-4.724601703E0,-1.571798810E1,9.176105690E-1,1.643833995E1
4.307941500E0,-6.681199928E0,-1.493608556E1,1.162363322E0,1.640354147E1
4.317877500E0,-8.382297049E0,-1.408781479E1,1.098422776E0,1.642972799E1
4.327812500E0,-9.647005355E0,-1.313576178E1,5.926433730E-1,1.630840814E1
4.337748500E0,-1.059863503E1,-1.219709538E1,-2.414256871E-2,1.615861328E1
4.347684500E0,-1.118957218E1,-1.142541845E1,-5.298951477E-1,1.600085939E1
4.357619500E0,-1.142469457E1,-1.071242652E1,-1.010583052E0,1.569397993E1
4.367555500E0,-1.170792668E1,-1.016122119E1,-1.195249890E0,1.554845927E1
4.377490500E0,-1.213526927E1,-9.989446371E0,-1.095245399E0,1.575605793E1
4.387426500E0,-1.253556263E1,-9.951039519E0,-8.067146158E-1,1.602542687E1
4.397361500E0,-1.264883723E1,-1.000098410E1,-5.501242480E-1,1.613429276E1
4.407297500E0,-1.238505530E1,-9.973191111E0,-4.825573323E-1,1.590870822E1
4.417233500E0,-1.186462270E1,-9.882711296E0,-3.876482514E-1,1.544627870E1
4.427168500E0,-1.127838437E1,-9.901503078E0,-2.086900502E-1,1.500950595E1
4.437104500E0,-1.079936175E1,-9.918624895E0,-7.747860409E-2,1.466326488E1
4.447039500E0,-1.033719198E1,-1.020106178E1,-1.919769537E-1,1.452432631E1
4.456975500E0,-9.702897136E0,-1.066234629E1,-5.583747424E-1,1.442718349E1
4.466911500E0,-8.967694552E0,-1.109672658E1,-9.455164057E-1,1.429863237E1
4.476846500E0,-8.221962887E0,-1.154062381E1,-1.257210861E0,1.422558437E1
4.486782500E0,-7.626509342E0,-1.201815772E1,-1.610930570E0,1.432462415E1
4.496717500E0,-7.241928613E0,-1.267266814E1,-1.992748636E0,1.473136433E1
4.506653500E0,-6.774576454E0,-1.349273429E1,-2.414745406E0,1.528985808E1
4.516588500E0,-5.912134949E0,-1.428949578E1,-2.739429012E0,1.570501514E1
4.526524500E0,-4.708721834E0,-1.499385839E1,-2.909268699E0,1.598285629E1
4.536460500E0,-3.156752102E0,-1.554685413E1,-2.977636976E0,1.614113005E1
4.546395500E0,-1.318520525E0,-1.599442926E1,-2.984472663E0,1.632382739E1
4.556331500E0,8.396198219E-1,-1.610067083E1,-2.984142003E0,1.639639186E1
4.566266500E0,2.906628681E0,-1.577507330E1,-2.906636283E0,1.630183923E1
4.576202500E0,4.683120970E0,-1.528079764E1,-2.374455166E0,1.615773610E1
4.586137500E0,6.239492487E0,-1.450565214E1,-1.094863064E0,1.582857971E1
4.596073500E0,7.495660935E0,-1.350152967E1,7.226579672E-1,1.545957538E1
4.606009500E0,8.226416126E0,-1.228736002E1,2.763884699E0,1.504301157E1
4.615944500E0,8.554073626E0,-1.097764687E1,4.901009860E0,1.475468753E1
4.625880500E0,9.234469088E0,-9.829762419E0,6.709322112E0,1.506368653E1
4.635815500E0,1.053463491E1,-8.375176309E0,8.590413487E0,1.596613024E1
4.645751500E0,1.233036512E1,-6.755877058E0,1.049527730E1,1.754510258E1
4.655687500E0,1.424885763E1,-5.365129094E0,1.188381560E1,1.931423380E1
4.665622500E0,1.596615446E1,-4.120325879E0,1.243253001E1,2.065098003E1
4.675558500E0,1.764422115E1,-2.992546499E0,1.243765334E1,2.179378571E1
4.685493500E0,1.913948517E1,-1.892795747E0,1.244621952E1,2.290875267E1
4.695429500E0,2.032503387E1,-1.041569202E0,1.276850869E1,2.402554229E1
4.705364500E0,2.179630326E1,-4.662981990E-1,1.322700992E1,2.550000120E1
4.715300500E0,2.269360294E1,4.227054521E-1,1.401355865E1,2.667504678E1
4.725236500E0,2.279692792E1,9.519848880E-1,1.510425148E1,2.736319811E1
4.735171500E0,2.207440151E1,8.152082813E-1,1.586268681E1,2.719501056E1
4.745107500E0,2.018031295E1,2.394551754E-1,1.581264166E1,2.563868183E1
4.755042500E0,1.780074878E1,-8.894626576E-1,1.494465758E1,2.325941941E1
4.764978500E0,1.558915640E1,-2.095331603E0,1.363948069E1,2.081940550E1
4.774913417E0,1.395332999E1,-3.336130937E0,1.183268053E1,1.859670713E1
4.784849417E0,1.280862643E1,-4.727431170E0,9.910926450E0,1.687115822E1
4.794785417E0,1.203536257E1,-6.156014128E0,8.453293941E0,1.594379630E1
4.804720417E0,1.163211402E1,-7.670609627E0,7.253262271E0,1.570840992E1
4.814656417E0,1.125740924E1,-9.003165516E0,6.401124730E0,1.577214792E1
4.824591417E0,1.101463167E1,-1.032695234E1,5.864351503E0,1.619748974E1
4.834527417E0,1.087550303E1,-1.157253206E1,5.487208432E0,1.680206894E1
4.844462417E0,1.075545735E1,-1.263287083E1,5.286210394E0,1.741302123E1
4.854398417E0,1.107759683E1,-1.376699911E1,5.018288049E0,1.836917611E1
4.864334417E0,1.082037314E1,-1.476055449E1,4.664784102E0,1.888689107E1
4.874269417E0,9.706972060E0,-1.600913617E1,4.239365834E0,1.919609258E1
4.884205417E0,8.156455945E0,-1.751669338E1,3.750196543E0,1.968314748E1
4.894140417E0,6.406231688E0,-1.913809120E1,3.049936920E0,2.041098857E1
4.904076417E0,4.512268837E0,-2.013637463E1,2.241183965E0,2.075709659E1
4.914012417E0,2.900469224E0,-2.032351126E1,1.493087686E0,2.058366203E1
4.923947417E0,1.760778481E0,-2.022256259E1,8.205508822E-1,2.031565117E1
4.933883417E0,9.110950166E-1,-1.996436826E1,4.009967870E-1,1.998916938E1
4.943818417E0,1.561284786E-1,-1.953388689E1,2.902578315E-1,1.953666713E1
4.953754417E0,-7.355101472E-1,-1.904377561E1,4.593929297E-1,1.906350982E1
4.963689417E0,-1.754642998E0,-1.859870193E1,7.111545937E-1,1.869481816E1
4.973625417E0,-3.058854509E0,-1.805928926E1,8.962901589E-1,1.833842566E1
4.983561417E0,-4.755141125E0,-1.727003327E1,9.776521182E-1,1.793937624E1
4.993496417E0,-6.442963312E0,-1.628519258E1,9.469811332E-1,1.753898648E1
5.003432417E0,-8.128424978E0,-1.516266751E1,9.608156455E-1,1.723081383E1
5.013367417E0,-9.573488898E0,-1.395365861E1,7.929795063E-1,1.694063443E1
5.023303417E0,-1.080629772E1,-1.273572452E1,4.416431218E-1,1.670837509E1
5.033239417E0,-1.160672658E1,-1.161150492E1,1.252396117E-1,1.641824697E1
5.043174417E0,-1.210502396E1,-1.064774462E1,-2.989856780E-2,1.612163033E1
5.053110417E0,-1.244337192E1,-9.997473428E0,-1.555909733E-1,1.596280640E1
5.063045417E0,-1.271319286E1,-9.698652642E0,-5.070986811E-1,1.599832131E1
5.072981417E0,-1.271088905E1,-9.430984066E0,-1.027007954E0,1.586079778E1
5.082916417E0,-1.228703024E1,-9.151128724E0,-1.460126932E0,1.538980960E1
5.092852417E0,-1.171553741E1,-8.970504724E0,-1.686462709E0,1.485152950E1
5.102788417E0,-1.120708927E1,-9.008864797E0,-1.894241179E0,1.450333218E1
5.112723417E0,-1.062527962E1,-9.121492111E0,-2.203004571E0,1.417573329E1
5.122659417E0,-9.967382487E0,-9.116034320E0,-2.361977500E0,1.371239341E1
5.132594417E0,-9.350490711E0,-9.196043526E0,-2.266597719E0,1.330925837E1
5.142530417E0,-8.826534580E0,-9.403536651E0,-2.086079407E0,1.306468299E1
5.152465417E0,-8.386718128E0,-9.653955356E0,-1.964505415E0,1.293812879E1
5.162401417E0,-7.993273605E0,-1.005083278E1,-1.949404396E0,1.298891219E1
5.172337417E0,-7.743897459E0,-1.051762536E1,-2.028369435E0,1.321751390E1
5.182272417E0,-7.394192448E0,-1.105613170E1,-2.060992367E0,1.345956239E1
5.192208417E0,-6.841616535E0,-1.173673474E1,-2.119012241E0,1.374950443E1
5.202143417E0,-6.174887770E0,-1.237334684E1,-2.160168161E0,1.399625941E1
5.212079417E0,-5.509409725E0,-1.293134429E1,-2.112462190E0,1.421392828E1
5.222014417E0,-4.698418456E0,-1.340495004E1,-2.090917540E0,1.435756796E1
5.231950417E0,-3.656283536E0,-1.374998021E1,-2.177359852E0,1.439344507E1
5.241886417E0,-2.520947799E0,-1.404416766E1,-2.548257512E0,1.449439338E1
5.251821417E0,-1.241118008E0,-1.449428164E1,-3.381910250E0,1.493525665E1
5.261757417E0,3.627074647E-1,-1.472778084E1,-4.055268003E0,1.528019253E1
5.271692417E0,1.942857853E0,-1.457160990E1,-4.215916160E0,1.529315078E1
5.281628417E0,3.625924500E0,-1.394950592E1,-3.474489216E0,1.482592726E1
5.291563417E0,5.449518449E0,-1.300693826E1,-1.390505889E0,1.417078688E1
5.301499417E0,7.390564250E0,-1.168753510E1,1.557150366E0,1.391558960E1
5.311435417E0,9.133784713E0,-9.791722773E0,4.814146548E0,1.422954198E1
5.321370417E0,1.032376443E1,-8.122851997E0,7.555458655E0,1.515406850E1
5.331306417E0,1.117483954E1,-6.851559725E0,8.898552396E0,1.584314186E1
5.341241417E0,1.153473566E1,-5.440697924E0,8.855702831E0,1.552658344E1
5.351177417E0,1.152863584E1,-4.456041134E0,7.995991976E0,1.472078920E1
5.361113417E0,1.168262227E1,-3.999200514E0,7.448042380E0,1.442049247E1
5.371048417E0,1.198909121E1,-3.474162649E0,7.737770162E0,1.468608870E1
5.380984417E0,1.259703090E1,-3.249444211E0,8.222482705E0,1.539003889E1
5.390919417E0,1.337353179E1,-2.904364640E0,8.653528333E0,1.619167190E1
5.400855417E0,1.418303201E1,-2.145437563E0,9.293431242E0,1.709178644E1
5.410790417E0,1.500750696E1,-1.396854796E0,1.021393034E1,1.820716456E1
5.420726417E0,1.605550693E1,-5.770871481E-1,1.137357353E1,1.968427056E1
5.430662417E0,1.707591155E1,1.760339355E-1,1.214155970E1,2.095316719E1
5.440597417E0,1.765419416E1,7.170446402E-1,1.238989797E1,2.157995126E1
5.450533417E0,1.753299074E1,1.155174462E0,1.246267826E1,2.154201805E1
5.460468417E0,1.701090923E1,1.223199215E0,1.224292235E1,2.099419912E1
5.470404417E0,1.632003263E1,8.264860985E-1,1.154390877E1,2.000720805E1
5.480339417E0,1.546893297E1,1.571819276E-2,1.042863308E1,1.865595139E1
5.490275417E0,1.454014019E1,-1.002447529E0,9.074932487E0,1.716901212E1
5.500211417E0,1.362909253E1,-1.865624905E0,8.345723884E0,1.608986720E1
5.510146417E0,1.304438266E1,-3.037399613E0,8.092917761E0,1.564854732E1
5.520082417E0,1.275648213E1,-4.627537923E0,7.845526745E0,1.567463663E1
5.530017417E0,1.245599957E1,-6.244365556E0,7.675500823E0,1.590777607E1
5.539953417E0,1.219328534E1,-7.725966387E0,7.907413675E0,1.645885643E1
5.549888417E0,1.166921694E1,-9.133791729E0,8.194644696E0,1.693366402E1
5.559824417E0,1.064743472E1,-1.055161172E1,8.061314730E0,1.702025767E1
5.569760417E0,9.427243018E0,-1.195920375E1,7.250884209E0,1.686626180E1
5.579695417E0,8.124297429E0,-1.317101698E1,5.907827890E0,1.656448995E1
5.589631417E0,7.141655297E0,-1.429363795E1,4.435507759E0,1.658267334E1
5.599566417E0,6.306304527E0,-1.520014465E1,3.266726534E0,1.677752593E1
5.609502417E0,5.081824479E0,-1.569816136E1,2.480609320E0,1.668564152E1
5.619438417E0,3.971848117E0,-1.601208551E1,1.884511704E0,1.660463321E1
5.629373417E0,2.894386951E0,-1.635611697E1,1.476329274E0,1.667571846E1
5.639309417E0,1.854153545E0,-1.659008278E1,1.216169985E0,1.673761636E1
5.649244417E0,8.615264153E-1,-1.671853207E1,1.062205488E0,1.677437996E1
5.659180417E0,2.308480740E-3,-1.682449414E1,8.146449021E-1,1.684420538E1
5.669115417E0,-8.500417529E-1,-1.685689123E1,5.736413839E-1,1.688805546E1
5.679051417E0,-1.780427465E0,-1.679917921E1,3.810086650E-1,1.689755934E1
5.688987417E0,-2.924613840E0,-1.668502986E1,8.905996487E-2,1.693964342E1
5.698922417E0,-4.176299228E0,-1.641525337E1,-3.497759087E-1,1.694179334E1
5.708858417E0,-5.438549657E0,-1.592774527E1,-9.584066657E-1,1.685791906E1
5.718793417E0,-6.582650371E0,-1.517249551E1,-1.515506496E0,1.660821079E1
5.728729417E0,-7.495421784E0,-1.419312782E1,-1.756611171E0,1.614657573E1
5.738664417E0,-8.502394180E0,-1.309686142E1,-1.631739787E0,1.569971530E1
5.748600417E0,-9.774925477E0,-1.217951515E1,-1.195069138E0,1.566262901E1
5.758536417E0,-1.117390983E1,-1.155993014E1,-8.646605229E-1,1.610080382E1
5.768471417E0,-1.256713292E1,-1.104948810E1,-6.888692468E-1,1.674809117E1
5.778407292E0,-1.358556586E1,-1.070146650E1,-6.668229049E-1,1.730704012E1
5.788342292E0,-1.429365432E1,-1.033006072E1,-7.211558175E-1,1.765046101E1
5.798278292E0,-1.453738615E1,-1.003360688E1,-7.366211182E-1,1.767912537E1
5.808214292E0,-1.422665692E1,-9.917552515E0,-7.281853402E-1,1.735758822E1
5.818149292E0,-1.335237656E1,-9.846243382E0,-9.014050108E-1,1.661466218E1
5.828085292E0,-1.218112079E1,-9.730439860E0,-1.183358919E0,1.563526469E1
5.838020292E0,-1.104064828E1,-9.669600751E0,-1.479309892E0,1.475077797E1
5.847956292E0,-1.008000103E1,-9.681823186E0,-1.670820238E0,1.407607052E1
5.857891292E0,-9.285200116E0,-9.796994623E0,-1.850940208E0,1.362431740E1
5.867827292E0,-8.576101257E0,-9.995932102E0,-2.031057254E0,1.332641606E1
5.877763292E0,-8.022194518E0,-1.022160071E1,-2.187766142E0,1.317660983E1
5.887698292E0,-7.477395988E0,-1.061623281E1,-2.389362935E0,1.320321571E1
5.897634292E0,-6.974157127E0,-1.102882638E1,-2.638883507E0,1.331306069E1
5.907569292E0,-6.744653327E0,-1.149536753E1,-2.976096527E0,1.365616980E1
5.917505292E0,-6.594478703E0,-1.231098862E1,-3.300285459E0,1.435059143E1
5.927440292E0,-6.091507645E0,-1.329893418E1,-3.699725132E0,1.508827630E1
5.937376292E0,-5.195570950E0,-1.380253849E1,-3.761435477E0,1.522013216E1
5.947312292E0,-3.950692598E0,-1.399893360E1,-3.374398625E0,1.493200187E1
5.957247292E0,-2.255659917E0,-1.427562384E1,-2.962863401E0,1.475330462E1
5.967183292E0,-7.519139260E-1,-1.467902442E1,-2.831046402E0,1.496843199E1
5.977118292E0,6.349795532E-1,-1.519333031E1,-2.944897831E0,1.548912225E1
5.987054292E0,2.331695940E0,-1.569787017E1,-3.402305923E0,1.623069991E1
5.996989292E0,4.027053434E0,-1.570377352E1,-3.488555862E0,1.658299383E1
6.006925292E0,5.800565981E0,-1.508772024E1,-2.142590554E0,1.630572175E1
6.016861292E0,7.941667834E0,-1.412626724E1,1.010423423E0,1.623707085E1
6.026796292E0,9.883883078E0,-1.240168361E1,6.087283031E0,1.698669820E1
6.036732292E0,1.112661638E1,-1.011187771E1,1.151371726E1,1.893719483E1
6.046667292E0,1.206551783E1,-8.224312883E0,1.478788671E1,2.078214706E1
6.056603292E0,1.270190422E1,-6.430690007E0,1.562594942E1,2.113912108E1
6.066539292E0,1.283257780E1,-4.582528688E0,1.456114338E1,1.994245518E1
6.076474292E0,1.372835954E1,-3.904555435E0,1.248033217E1,1.895974947E1
6.086410292E0,1.456541419E1,-3.966271335E0,1.020735806E1,1.822286359E1
6.096345292E0,1.499841454E1,-3.288735161E0,8.639582723E0,1.761847347E1
6.106281292E0,1.627151945E1,-2.655101052E0,7.891446099E0,1.827804225E1
6.116216292E0,1.745189687E1,-1.345346965E0,7.884862719E0,1.919764889E1
6.126152292E0,1.816058526E1,2.198137933E-1,8.667348227E0,2.012406769E1
6.136088292E0,1.890966387E1,1.051899770E0,9.813709474E0,2.133051276E1
6.146023292E0,1.936943044E1,1.471438078E0,1.037198408E1,2.202085419E1
6.155959292E0,1.915894938E1,1.747998222E0,1.035437344E1,2.184797219E1
6.165894292E0,1.846567543E1,1.549079162E0,1.032360071E1,2.121220279E1
6.175830292E0,1.738032696E1,8.974926388E-1,1.036748874E1,2.025749444E1
6.185765292E0,1.591973225E1,1.679203391E-1,1.007954962E1,1.884312587E1
6.195701292E0,1.443941605E1,-6.547196071E-1,9.312749273E0,1.719455416E1
6.205637292E0,1.332673535E1,-1.845927682E0,8.463037741E0,1.589441197E1
6.215572292E0,1.288619560E1,-3.161198325E0,8.178769505E0,1.558651604E1
6.225508292E0,1.254287048E1,-4.348549722E0,8.248540236E0,1.562920026E1
6.235443292E0,1.203314764E1,-5.688861358E0,8.185095023E0,1.562547811E1
6.245379292E0,1.118499147E1,-7.252867000E0,7.885647415E0,1.548843275E1
6.255314292E0,1.030218821E1,-9.039315927E0,7.243826619E0,1.550217205E1
6.265250292E0,9.330648769E0,-1.062455807E1,6.374662571E0,1.551059520E1
6.275186292E0,8.253048440E0,-1.178408666E1,5.476364771E0,1.539376751E1
6.285121292E0,7.360458691E0,-1.258066104E1,4.864662398E0,1.536601199E1
6.295057292E0,6.513004770E0,-1.319728969E1,4.584493645E0,1.541444998E1
6.304992292E0,5.890935869E0,-1.383737269E1,4.355604388E0,1.565718040E1
6.314928292E0,5.036941836E0,-1.449376592E1,4.065422570E0,1.587349030E1
6.324863292E0,3.698414771E0,-1.536988464E1,3.544780934E0,1.620114495E1
6.334799292E0,2.249744874E0,-1.626785909E1,2.875119498E0,1.667245944E1
6.344735292E0,6.074216259E-1,-1.674356985E1,2.246629185E0,1.690453889E1
6.354670292E0,-1.157706892E0,-1.674190807E1,1.954813509E0,1.689535637E1
6.364606292E0,-2.957879819E0,-1.662757045E1,1.793927955E0,1.698361944E1
6.374541292E0,-4.640742105E0,-1.637852584E1,1.273059300E0,1.707083114E1
6.384477292E0,-5.907619144E0,-1.573595426E1,5.700507550E-1,1.681800161E1
6.394413292E0,-6.837697731E0,-1.488893946E1,-2.339687695E-1,1.638564524E1
6.404348292E0,-7.715401638E0,-1.386325948E1,-9.398136163E-1,1.589341485E1
6.414284292E0,-8.658933499E0,-1.286004568E1,-1.406448323E0,1.556714492E1
6.424219292E0,-9.641727659E0,-1.184945970E1,-1.610177010E0,1.536116133E1
6.434155292E0,-1.061941486E1,-1.108576539E1,-1.723027103E0,1.544781501E1
6.444090292E0,-1.132990770E1,-1.062618594E1,-1.971696321E0,1.565791245E1
6.454026292E0,-1.166893511E1,-1.023993992E1,-2.076234012E0,1.566305091E1
6.463962292E0,-1.185960930E1,-9.819479506E0,-1.832753613E0,1.550585361E1
6.473897292E0,-1.193082956E1,-9.566299746E0,-1.472592026E0,1.536318040E1
6.483833292E0,-1.180359882E1,-9.467674760E0,-1.110482147E0,1.517217786E1
6.493768292E0,-1.161790529E1,-9.364303004E0,-8.543308318E-1,1.494643018E1
6.503704292E0,-1.141830356E1,-9.208100485E0,-6.147376621E-1,1.468143975E1
6.513639292E0,-1.110917998E1,-9.037742441E0,-3.883463359E-1,1.432639107E1
6.523575292E0,-1.069305820E1,-8.927502546E0,-3.190351957E-1,1.393354151E1
6.533511292E0,-1.031978716E1,-8.900756797E0,-3.307606538E-1,1.363198009E1
6.543446292E0,-9.971997110E0,-8.912172900E0,-3.935422083E-1,1.337992629E1
6.553382292E0,-9.492493266E0,-8.986592168E0,-5.463568139E-1,1.308299557E1
6.563317292E0,-8.886477896E0,-9.182256376E0,-8.845340395E-1,1.280881423E1
6.573253292E0,-8.266291214E0,-9.495159012E0,-1.411798525E0,1.266818022E1
6.583189292E0,-7.823202075E0,-9.946270530E0,-1.951801754E0,1.280391808E1
6.593124292E0,-7.495363896E0,-1.038313823E1,-2.268721427E0,1.300527341E1
6.603060292E0,-7.083501813E0,-1.088669460E1,-2.474091429E0,1.322184728E1
6.612995292E0,-6.366624988E0,-1.136336079E1,-2.507555336E0,1.326452848E1
6.622931292E0,-5.543235283E0,-1.170960132E1,-2.357706255E0,1.316818132E1
6.632866292E0,-4.467936417E0,-1.228879376E1,-2.128845212E0,1.324797682E1
6.642802292E0,-2.942945153E0,-1.277119841E1,-1.969199706E0,1.325300654E1
6.652738292E0,-1.306301306E0,-1.295047872E1,-2.040035069E0,1.317509261E1
6.662673292E0,1.893977469E-1,-1.301138799E1,-2.251233282E0,1.320606453E1
6.672609292E0,1.791830705E0,-1.276998102E1,-2.372256321E0,1.311147103E1
6.682544292E0,3.721624709E0,-1.201129894E1,-1.760379117E0,1.269727243E1
6.692480292E0,6.017563171E0,-1.074550305E1,1.321953133E-1,1.231642716E1
6.702415292E0,8.284999965E0,-8.884073521E0,3.295745680E0,1.258689502E1
6.712351292E0,1.027171720E1,-7.094591058E0,6.613251189E0,1.412715427E1
6.722287292E0,1.144103286E1,-5.516550345E0,9.185323241E0,1.567481176E1
6.732222292E0,1.189903357E1,-3.883740517E0,1.059891569E1,1.640144671E1
6.742158292E0,1.210543677E1,-2.931744812E0,1.093732213E1,1.657593866E1
6.752093292E0,1.213500263E1,-2.770037139E0,1.048926870E1,1.627747378E1
6.762029292E0,1.216800900E1,-2.486719660E0,9.672382271E0,1.574163894E1
6.771964042E0,1.227020897E1,-1.970514745E0,8.939760649E0,1.530883003E1
6.781900042E0,1.270976054E1,-1.748354610E0,8.358024672E0,1.531180372E1
6.791836042E0,1.327375256E1,-1.378900920E0,7.772997882E0,1.544387810E1
6.801771042E0,1.403222063E1,-8.731638363E-1,7.552545573E0,1.595952930E1
6.811707042E0,1.499049040E1,-3.353845954E-1,7.761019861E0,1.688374113E1
6.821642042E0,1.566337979E1,4.772824860E-1,8.287142969E0,1.772698518E1
6.831578042E0,1.582893200E1,1.121654129E0,8.998830391E0,1.824259150E1
6.841513042E0,1.558677892E1,1.511655227E0,9.674343427E0,1.840721868E1
6.851449042E0,1.493373498E1,1.689735981E0,9.904413822E0,1.799914057E1
6.861385042E0,1.366432434E1,1.618152320E0,9.452253898E0,1.669362994E1
6.871320042E0,1.226911905E1,1.065841286E0,8.264941092E0,1.483160649E1
6.881256042E0,1.122743758E1,-9.109815806E-3,6.708954322E0,1.307920126E1
6.891191042E0,1.031012522E1,-1.163847199E0,5.258933718E0,1.163226574E1
6.901127042E0,9.743430035E0,-2.253940543E0,4.402939353E0,1.092705595E1
6.911063042E0,9.924708338E0,-3.245581248E0,4.796945794E0,1.149105401E1
6.920998042E0,1.022659891E1,-3.734686219E0,6.121786866E0,1.249029547E1
6.930934042E0,1.051770254E1,-4.282886075E0,7.393047563E0,1.355073180E1
6.940869042E0,1.073292101E1,-5.048671351E0,8.368059663E0,1.451582234E1
6.950805042E0,1.055020371E1,-6.093219125E0,8.677018937E0,1.495743211E1
6.960740042E0,1.064666172E1,-7.772755222E0,8.071475437E0,1.545690283E1
6.970676042E0,1.017078724E1,-9.377727626E0,6.751616192E0,1.539386273E1
6.980612042E0,9.357267634E0,-1.075420838E1,5.312081984E0,1.521281271E1
6.990547042E0,8.485983385E0,-1.232622296E1,3.978703392E0,1.548475919E1
7.000483042E0,7.502864120E0,-1.358499751E1,3.025676823E0,1.581138348E1
7.010418042E0,6.189418101E0,-1.386670466E1,2.652971789E0,1.541533827E1
7.020354042E0,4.987452757E0,-1.386091592E1,2.591939721E0,1.495719983E1
7.030289042E0,3.893082613E0,-1.400916857E1,2.427573904E0,1.474130290E1
7.040225042E0,2.786571311E0,-1.422512495E1,2.238656506E0,1.466733590E1
7.050161042E0,1.719179343E0,-1.441217972E1,2.163639068E0,1.467473461E1
7.060096042E0,8.301160499E-1,-1.472358371E1,2.019109054E0,1.488454942E1
7.070032042E0,-1.471305639E-2,-1.502619116E1,1.798518604E0,1.513344991E1
7.079967042E0,-1.052533901E0,-1.526883423E1,1.555529518E0,1.538391363E1
7.089903042E0,-2.350757278E0,-1.538746956E1,1.261656791E0,1.561704380E1
7.099839042E0,-3.972106856E0,-1.536759020E1,9.361333787E-1,1.590021406E1
7.109774042E0,-6.233159367E0,-1.496389258E1,5.123687766E-1,1.621828840E1
7.119710042E0,-8.909355127E0,-1.450703091E1,-3.975796376E-1,1.702905236E1
7.129645042E0,-1.159239154E1,-1.398767420E1,-1.916098655E0,1.826773126E1
7.139581042E0,-1.377053083E1,-1.315568558E1,-3.549794337E0,1.937267721E1
7.149516042E0,-1.474120956E1,-1.208550946E1,-4.645270189E0,1.961992185E1
7.159452042E0,-1.445037490E1,-1.095587651E1,-4.892274120E0,1.878240962E1
7.169388042E0,-1.344232779E1,-1.003884599E1,-4.464061468E0,1.736094611E1
7.179323042E0,-1.222415279E1,-9.326010758E0,-3.776700218E0,1.583249357E1
7.189259042E0,-1.119707533E1,-8.918497834E0,-3.180861926E0,1.466396884E1
7.199194042E0,-1.045582146E1,-8.768652408E0,-2.600833336E0,1.389164502E1
7.209130042E0,-1.007778494E1,-8.639050627E0,-2.148269370E0,1.344656113E1
7.219065042E0,-9.855867898E0,-8.612129461E0,-1.833663440E0,1.321624862E1
7.229001042E0,-9.755602768E0,-8.610100477E0,-1.481997272E0,1.309587460E1
7.238937042E0,-9.613040049E0,-8.653362272E0,-1.147290369E0,1.298489479E1
7.248872042E0,-9.488647553E0,-8.697934427E0,-9.601034546E-1,1.290776101E1
7.258808042E0,-9.319451351E0,-8.771509942E0,-1.068466979E0,1.284263142E1
7.268743042E0,-8.946003136E0,-8.839578549E0,-1.378645397E0,1.265186880E1
7.278679042E0,-8.411965236E0,-8.957463094E0,-1.840735062E0,1.242520059E1
7.288614042E0,-7.738142629E0,-9.182356948E0,-2.352196863E0,1.223631319E1
7.298550042E0,-6.999819971E0,-9.613434151E0,-3.043658180E0,1.227515584E1
7.308486042E0,-6.259973529E0,-9.978909688E0,-3.621623873E0,1.232404425E1
7.318421042E0,-5.645156929E0,-1.017181986E1,-3.966962183E0,1.229107420E1
7.328357042E0,-4.969194242E0,-1.043535621E1,-4.049895289E0,1.224708955E1
7.338292042E0,-4.213220886E0,-1.091073835E1,-3.997334375E0,1.236018299E1
7.348228042E0,-3.319884156E0,-1.137504001E1,-3.625513440E0,1.239183255E1
7.358163042E0,-2.179573608E0,-1.168091371E1,-3.176223622E0,1.229970255E1
7.368099042E0,-7.105004364E-1,-1.168609785E1,-2.677581842E0,1.200995997E1
7.378035042E0,1.015830928E0,-1.140719970E1,-1.674971176E0,1.157418014E1
7.387970042E0,3.118697253E0,-1.097719546E1,-4.897043109E-1,1.142212340E1
7.397906042E0,4.999881014E0,-1.001213123E1,6.404882151E-1,1.120945168E1
7.407841042E0,6.349082172E0,-8.850492961E0,1.737719402E0,1.103003802E1
7.417777042E0,7.343207066E0,-7.983007649E0,2.739132850E0,1.118722262E1
7.427712042E0,7.984461851E0,-7.287529879E0,3.896164681E0,1.149085819E1
7.437648042E0,8.518059456E0,-6.418572237E0,5.137265439E0,1.183836571E1
7.447584042E0,9.109696523E0,-5.704922490E0,6.191025501E0,1.240409239E1
7.457519042E0,9.631224305E0,-5.054610368E0,7.342263325E0,1.312320077E1
7.467455042E0,1.012362360E1,-4.027705398E0,9.054847301E0,1.416687775E1
7.477390042E0,1.084412920E1,-3.015421099E0,1.087251159E1,1.564926231E1
7.487326042E0,1.195460901E1,-2.352178736E0,1.201385066E1,1.711075770E1
7.497262042E0,1.299243950E1,-1.641708998E0,1.237271651E1,1.801618180E1
7.507197042E0,1.407832008E1,-1.218101028E0,1.230505487E1,1.873758900E1
7.517133042E0,1.513439505E1,-7.909411669E-1,1.194728011E1,1.929800517E1
7.527068042E0,1.576016641E1,-9.156973600E-2,1.142990093E1,1.946879209E1
7.537004042E0,1.615808815E1,2.386964992E-1,1.116376842E1,1.964104157E1
7.546939042E0,1.630913927E1,2.428693646E-1,1.113179116E1,1.974750070E1
7.556875042E0,1.592523682E1,4.326381174E-1,1.107832890E1,1.940437360E1
7.566811042E0,1.516039177E1,5.077768850E-1,1.091168326E1,1.868582745E1
7.576746042E0,1.439486260E1,3.103930110E-1,1.069573272E1,1.793619557E1
7.586682042E0,1.364019289E1,5.637183666E-2,1.042266658E1,1.716653775E1
7.596617042E0,1.313877309E1,-5.574071744E-1,9.768759003E0,1.638190201E1
7.606553042E0,1.262403568E1,-1.580427108E0,8.727726576E0,1.542845546E1
7.616488042E0,1.192282940E1,-2.843959978E0,7.673822672E0,1.446131127E1
7.626424042E0,1.111996809E1,-4.209550881E0,6.806409280E0,1.370040935E1
7.636360042E0,1.027091028E1,-5.683191313E0,6.083184718E0,1.322102106E1
7.646295042E0,9.387490137E0,-6.970743522E0,5.491847613E0,1.291807364E1
7.656231042E0,8.654769112E0,-7.953095632E0,4.936578473E0,1.274859073E1
7.666166042E0,8.421082215E0,-8.712817930E0,4.365271590E0,1.287957367E1
7.676102042E0,8.439561755E0,-9.315113887E0,3.958221180E0,1.317820414E1
7.686037042E0,8.492411229E0,-9.891204962E0,3.583142177E0,1.352020310E1
7.695973042E0,7.942393473E0,-1.042882837E1,3.279426686E0,1.351283518E1
7.705909042E0,6.872688054E0,-1.121052509E1,3.067459856E0,1.350255620E1
7.715844042E0,5.357133611E0,-1.219488514E1,2.708534955E0,1.359228699E1
7.725780042E0,3.698170942E0,-1.311934630E1,2.185474033E0,1.380470979E1
7.735715042E0,2.065494431E0,-1.389427662E1,1.442753977E0,1.412086149E1
7.745651042E0,6.787740290E-1,-1.445613441E1,3.972902369E-1,1.447751345E1
7.755586042E0,-4.198648748E-1,-1.452332242E1,-7.824094945E-1,1.455044141E1
7.765522042E0,-1.244040154E0,-1.419737290E1,-1.783859488E0,1.436297976E1
7.775458125E0,-1.862046409E0,-1.371759365E1,-2.289339879E0,1.403141723E1
7.785393125E0,-2.385297073E0,-1.307457417E1,-2.180295447E0,1.346802956E1
7.795329125E0,-2.897684488E0,-1.240734138E1,-1.635227359E0,1.284572551E1
7.805264125E0,-3.382626242E0,-1.196531643E1,-9.895207965E-1,1.247357643E1
7.815200125E0,-3.880978000E0,-1.160472566E1,-5.551615512E-1,1.224907557E1
7.825136125E0,-4.403692474E0,-1.125910142E1,-3.636418498E-1,1.209512743E1
7.835071125E0,-4.937515197E0,-1.090473443E1,-2.025767863E-1,1.197218971E1
7.845007125E0,-5.730939676E0,-1.047592068E1,-5.904386804E-2,1.194119214E1
7.854942125E0,-6.843584708E0,-1.007132961E1,-9.406708181E-4,1.217646634E1
7.864878125E0,-8.109297566E0,-9.771602504E0,6.209743023E-4,1.269822519E1
7.874813125E0,-9.327830411E0,-9.575242478E0,-3.692652632E-1,1.337273515E1
7.884749125E0,-1.030970071E1,-9.307159919E0,-1.123020989E0,1.393464498E1
7.894685125E0,-1.105441145E1,-8.894082785E0,-1.956250316E0,1.432241727E1
7.904620125E0,-1.141726861E1,-8.570149376E0,-2.494192986E0,1.449215241E1
7.914556125E0,-1.146928777E1,-8.253248999E0,-2.627615923E0,1.437237094E1
7.924491125E0,-1.131068205E1,-7.935303140E0,-2.528195130E0,1.404607899E1
7.934427125E0,-1.101825695E1,-7.726628877E0,-2.404279182E0,1.367052809E1
7.944362125E0,-1.057814872E1,-7.616497740E0,-2.278764020E0,1.323257472E1
7.954298125E0,-1.010641758E1,-7.545960438E0,-2.061553407E0,1.278010946E1
7.964234125E0,-9.743682634E0,-7.685910037E0,-1.792597713E0,1.253897807E1
7.974169125E0,-9.387563812E0,-7.953572765E0,-1.605892171E0,1.240824580E1
7.984105125E0,-8.962650744E0,-8.188577040E0,-1.526827436E0,1.223573064E1
7.994040125E0,-8.675909720E0,-8.295399238E0,-1.404319644E0,1.208541152E1
8.003976125E0,-8.411593938E0,-8.499489284E0,-1.292935302E0,1.202779749E1
8.013911125E0,-8.125196146E0,-8.874594015E0,-1.364011278E0,1.210940783E1
8.023847125E0,-7.757898032E0,-9.397356144E0,-1.694790314E0,1.230315401E1
8.033783125E0,-7.302274218E0,-9.844713750E0,-2.081460545E0,1.243278229E1
8.043718125E0,-6.615866064E0,-1.016160360E1,-2.440373752E0,1.236864162E1
8.053654125E0,-5.870049030E0,-1.055303610E1,-2.834431063E0,1.240395284E1
8.063589125E0,-4.815624432E0,-1.102969527E1,-3.220066338E0,1.245846073E1
8.073525125E0,-3.479078695E0,-1.117386656E1,-3.547274187E0,1.222875450E1
8.083461125E0,-1.942320494E0,-1.121952045E1,-3.816455145E0,1.200897905E1
8.093396125E0,-5.082838386E-1,-1.136353737E1,-3.903195373E0,1.202594147E1
8.103332125E0,7.857453310E-1,-1.141857370E1,-3.864393834E0,1.208034606E1
8.113267125E0,2.270831687E0,-1.153045901E1,-3.560959010E0,1.227960058E1
8.123203125E0,3.748334205E0,-1.120217761E1,-2.052100214E0,1.198957496E1
8.133138125E0,5.465904686E0,-1.018521115E1,9.576300824E-1,1.159877992E1
8.143074125E0,7.176335717E0,-9.030505927E0,4.226482664E0,1.228466472E1
8.153010125E0,7.994633083E0,-7.742064357E0,6.895383437E0,1.309198348E1
8.162945125E0,7.973389564E0,-6.783761845E0,8.511676050E0,1.349233097E1
8.172881125E0,7.820473180E0,-5.983147629E0,9.142602898E0,1.343670510E1
8.182816125E0,8.145188361E0,-4.981559933E0,9.501531892E0,1.346993471E1
8.192752125E0,9.553920606E0,-4.226488219E0,9.744046916E0,1.428590396E1
8.202687125E0,1.144892660E1,-3.101071406E0,1.017790213E1,1.562959551E1
8.212623125E0,1.317790032E1,-1.706532546E0,1.092687900E1,1.720366225E1
8.222559125E0,1.461894077E1,-9.671967119E-1,1.134234706E1,1.852829554E1
8.232494125E0,1.517530802E1,-1.030481127E-1,1.152705359E1,1.905711302E1
8.242430125E0,1.519456758E1,8.041719541E-1,1.182504173E1,1.927052642E1
8.252365125E0,1.501363601E1,1.280758037E0,1.200508569E1,1.926581662E1
8.262301125E0,1.466246394E1,1.419918261E0,1.182561359E1,1.889045138E1
8.272236125E0,1.412357519E1,1.553745532E0,1.142358828E1,1.823150763E1
8.282172125E0,1.392229297E1,1.331658926E0,1.059662241E1,1.754685054E1
8.292108125E0,1.351248970E1,9.121118474E-1,9.309951380E0,1.643455264E1
8.302043125E0,1.297325011E1,4.081008616E-1,8.130331171E0,1.531581045E1
8.311979125E0,1.260968428E1,-1.154939112E-1,7.338956725E0,1.459033112E1
8.321914125E0,1.199010863E1,-4.738011999E-1,6.711883777E0,1.374905729E1
8.331850125E0,1.113991879E1,-7.595384029E-1,6.434762008E0,1.288723599E1
8.341785125E0,1.024538017E1,-1.084189849E0,6.366588151E0,1.211101677E1
8.351721125E0,9.647538037E0,-1.685492072E0,6.086743333E0,1.153101548E1
8.361657125E0,9.100691811E0,-2.257839759E0,5.893218037E0,1.107476639E1
8.371592125E0,8.747629913E0,-3.177008903E0,5.503545552E0,1.081218888E1
8.381528125E0,8.902696903E0,-4.564902256E0,4.686342201E0,1.104799294E1
8.391463125E0,9.146354472E0,-5.899642373E0,3.986298341E0,1.159103769E1
8.401399125E0,8.918551628E0,-7.030457627E0,3.929030710E0,1.201687064E1
8.411335125E0,8.271496405E0,-8.255766225E0,4.188262339E0,1.241438159E1
8.421270125E0,7.111128153E0,-9.433839846E0,4.361245197E0,1.259309086E1
8.431206125E0,5.762488913E0,-1.063652381E1,4.351394393E0,1.285599278E1
8.441141125E0,4.721596234E0,-1.186283229E1,4.087062238E0,1.340613063E1
8.451077125E0,3.502682151E0,-1.263771115E1,3.829524549E0,1.366183676E1
8.461012125E0,2.227176960E0,-1.318957838E1,3.589241992E0,1.384947483E1
8.470948125E0,1.379514293E0,-1.357893044E1,3.245951961E0,1.402949093E1
8.480884125E0,7.312030882E-1,-1.365900572E1,2.787779346E0,1.395975676E1
8.490819125E0,1.847506723E-1,-1.339156928E1,2.316210759E0,1.359165526E1
8.500755125E0,-4.086525464E-1,-1.292963924E1,1.943094665E0,1.308121495E1
8.510690125E0,-9.424273217E-1,-1.272840848E1,1.631407958E0,1.286709150E1
8.520626125E0,-1.391477989E0,-1.253947091E1,1.348766417E0,1.268832978E1
8.530561125E0,-2.037418440E0,-1.236519582E1,9.998244676E-1,1.257174572E1
8.540497125E0,-2.807714550E0,-1.216670156E1,4.700225830E-1,1.249531148E1
8.550433125E0,-3.635911836E0,-1.182113228E1,-2.080791624E-1,1.236941067E1
8.560368125E0,-4.752668045E0,-1.143511197E1,-9.949224544E-1,1.242334536E1
8.570304125E0,-6.033871640E0,-1.108491287E1,-1.852556963E0,1.275597380E1
8.580239125E0,-7.193213121E0,-1.077410529E1,-2.733719498E0,1.323997289E1
8.590175125E0,-8.393137786E0,-1.001869531E1,-3.442347071E0,1.351550114E1
8.600110125E0,-9.339077531E0,-9.211703539E0,-3.787949091E0,1.365365920E1
8.610046125E0,-9.898186537E0,-8.687487792E0,-3.922864237E0,1.374173951E1
8.619982125E0,-1.011974806E1,-8.186889533E0,-3.867714468E0,1.357916331E1
8.629917125E0,-1.014649907E1,-7.710111077E0,-3.634614632E0,1.325170479E1
8.639853125E0,-1.002980619E1,-7.523872581E0,-3.638843338E0,1.305552955E1
8.649788125E0,-9.729638792E0,-7.447023211E0,-3.614860398E0,1.277463273E1
8.659724125E0,-9.349917099E0,-7.272114864E0,-3.364711250E0,1.231364634E1
8.669659125E0,-9.177214907E0,-7.118837122E0,-3.012966730E0,1.199904513E1
8.679595125E0,-9.015848127E0,-7.154804515E0,-2.743876989E0,1.183239646E1
8.689531125E0,-8.795991649E0,-7.062265896E0,-2.600415260E0,1.157614911E1
8.699466125E0,-8.470544981E0,-6.904288747E0,-2.429201331E0,1.119465741E1
8.709402125E0,-8.065978469E0,-6.815045033E0,-2.180941418E0,1.078245579E1
8.719337125E0,-7.578461017E0,-6.652148622E0,-1.962730346E0,1.027309413E1
8.729273125E0,-7.120813481E0,-6.594040162E0,-2.053340993E0,9.919856830E0
8.739209125E0,-6.566539537E0,-6.673074637E0,-2.544443958E0,9.701729828E0
8.749144125E0,-5.941502005E0,-6.811584066E0,-3.286776929E0,9.617797364E0
8.759080125E0,-5.268271136E0,-7.160644130E0,-4.041581718E0,9.765443559E0
8.769015125E0,-4.684382507E0,-7.445302960E0,-4.439974740E0,9.853392884E0
8.778951167E0,-4.064760081E0,-7.416737557E0,-4.134916436E0,9.414234140E0
8.788886167E0,-3.271435881E0,-7.436056758E0,-3.576938281E0,8.876470036E0
8.798822167E0,-2.533926863E0,-7.419572287E0,-3.024483114E0,8.403471686E0
8.808758167E0,-1.948456562E0,-7.472255116E0,-2.432955389E0,8.096317151E0
8.818693167E0,-1.461717374E0,-7.627874667E0,-1.945894312E0,8.006721819E0
8.828629167E0,-9.868117815E-1,-7.806536926E0,-1.806461023E0,8.073358514E0
8.838564167E0,-4.618774116E-1,-8.013350020E0,-2.065989690E0,8.288270187E0
8.848500167E0,2.857645386E-1,-7.865708994E0,-1.915838162E0,8.100708316E0
8.858435167E0,1.209429315E0,-7.305539303E0,-1.111543416E0,7.487933796E0
8.868371167E0,2.175893371E0,-6.603516744E0,9.177438855E-2,6.953370973E0
8.878307167E0,2.929852068E0,-6.124012901E0,1.173604009E0,6.889478465E0
8.888242167E0,3.558242978E0,-5.903495103E0,1.968804288E0,7.168579905E0
8.898178167E0,4.275163073E0,-5.428376672E0,2.915086094E0,7.499467950E0
8.908113167E0,5.345975955E0,-5.193622073E0,3.850231293E0,8.389126901E0
8.918049167E0,6.334164755E0,-4.680708409E0,4.506336252E0,9.074014590E0
8.927984167E0,6.885057839E0,-3.735134408E0,4.957421458E0,9.269912513E0
8.937920167E0,7.390501685E0,-3.313018940E0,5.374845997E0,9.720317852E0
8.947856167E0,7.814173974E0,-2.772556997E0,6.123942735E0,1.030781557E1
8.957791167E0,8.186098405E0,-1.937409564E0,7.268075607E0,1.111713479E1
8.967727167E0,8.735092313E0,-1.362816692E0,8.405276606E0,1.219867951E1
8.977662167E0,9.589269363E0,-7.044960769E-1,9.372707207E0,1.342751064E1
8.987598167E0,1.092912082E1,-4.355240107E-1,9.692807180E0,1.461457745E1
8.997533167E0,1.217441520E1,-1.645131665E-1,9.371198625E0,1.536433578E1
9.007469167E0,1.289115053E1,4.873122150E-1,9.256252890E0,1.587757704E1
9.017405167E0,1.362291553E1,9.109096599E-1,9.924739913E0,1.687939710E1
9.027340167E0,1.430237836E1,1.018058133E0,1.092881092E1,1.802868207E1
9.037276167E0,1.477900830E1,1.199958580E0,1.186035657E1,1.898754974E1
9.047211167E0,1.501123398E1,1.069916503E0,1.242374984E1,1.951490269E1
9.057147167E0,1.465189568E1,7.911756402E-1,1.238829934E1,1.920348839E1
9.067082167E0,1.368607716E1,4.030079368E-1,1.168790581E1,1.800217391E1
9.077018167E0,1.241135608E1,-3.811498752E-1,1.040017585E1,1.619724336E1
9.086954167E0,1.127407731E1,-1.364009085E0,8.848527128E0,1.439658891E1
9.096889167E0,1.051013274E1,-2.300942217E0,7.791161088E0,1.328380278E1
9.106825167E0,1.009484126E1,-3.073716377E0,7.671815908E0,1.304646741E1
9.116760167E0,9.708439127E0,-3.977621073E0,7.776012706E0,1.305915898E1
9.126696167E0,9.192137586E0,-4.985454764E0,7.344483513E0,1.277855980E1
9.136631167E0,8.597689177E0,-6.056458849E0,6.219410225E0,1.221810200E1
9.146567167E0,7.821475977E0,-7.047066643E0,4.965829754E0,1.164027920E1
9.156503167E0,7.277703048E0,-7.969979467E0,4.141046072E0,1.156000852E1
9.166438167E0,6.772626407E0,-8.888260712E0,3.800556858E0,1.180313007E1
9.176374167E0,6.190055448E0,-9.793922496E0,3.707300200E0,1.216477616E1
9.186309167E0,5.687670280E0,-1.068800153E1,3.581968056E0,1.262590453E1
9.196245167E0,5.051797857E0,-1.151277586E1,3.451103277E0,1.303743776E1
9.206180167E0,4.331927258E0,-1.219940387E1,3.097274809E0,1.331105404E1
9.216116167E0,3.367075279E0,-1.284395414E1,2.408029586E0,1.349455299E1
9.226052167E0,2.097247735E0,-1.318612735E1,1.562991734E0,1.344304080E1
9.235987167E0,9.306375808E-1,-1.333775735E1,5.255740553E-1,1.338051141E1
9.245923167E0,3.222049713E-2,-1.338012043E1,-6.148598689E-1,1.339427913E1
9.255858167E0,-8.417373911E-1,-1.308284331E1,-1.645705862E0,1.321278391E1
9.265794167E0,-1.451287403E0,-1.259219642E1,-2.408095952E0,1.290227003E1
9.275730167E0,-1.738962812E0,-1.214841498E1,-2.662252197E0,1.255768947E1
9.285665167E0,-2.056829149E0,-1.169659244E1,-2.513213102E0,1.213907166E1
9.295601167E0,-2.582611366E0,-1.121888193E1,-2.033032005E0,1.169044107E1
9.305536167E0,-3.527521707E0,-1.080825186E1,-1.227527617E0,1.143540737E1
9.315472167E0,-4.795606197E0,-1.063097714E1,-6.836704874E-1,1.168259043E1
9.325407167E0,-6.266571527E0,-1.042278937E1,-8.307453565E-1,1.218993826E1
9.335343167E0,-7.681706473E0,-1.016240467E1,-1.345025076E0,1.280984682E1
9.345279167E0,-8.959065231E0,-9.829281778E0,-2.060479859E0,1.345827654E1
9.355214167E0,-1.020114014E1,-9.424428753E0,-3.039131266E0,1.421687153E1
9.365150167E0,-1.119278464E1,-8.955765063E0,-3.895648956E0,1.485463687E1
9.375085167E0,-1.169697484E1,-8.616534753E0,-4.434008533E0,1.518961235E1
9.385021167E0,-1.171833472E1,-8.289318134E0,-4.807338050E0,1.513745893E1
9.394956167E0,-1.150756950E1,-7.880262129E0,-5.062760802E0,1.483759529E1
9.404892167E0,-1.113667710E1,-7.557682936E0,-5.185314349E0,1.442330174E1
9.414828167E0,-1.065462328E1,-7.321891041E0,-4.880793112E0,1.381858268E1
9.424763167E0,-1.034810522E1,-7.220597970E0,-4.355112053E0,1.334868225E1
9.434699167E0,-1.007104777E1,-7.185540404E0,-3.880805799E0,1.296605753E1
9.444634167E0,-9.771714186E0,-7.288464264E0,-3.594600088E0,1.270941616E1
9.454570167E0,-9.424677844E0,-7.521382837E0,-3.547956264E0,1.256915852E1
9.464505167E0,-9.125543647E0,-7.715454848E0,-3.552874357E0,1.246702477E1
9.474441167E0,-8.874941924E0,-7.804320247E0,-3.538004011E0,1.233651008E1
9.484377167E0,-8.525093656E0,-7.922673154E0,-3.566298687E0,1.217228237E1
9.494312167E0,-8.131250353E0,-8.150170189E0,-3.746021047E0,1.210682370E1
9.504248167E0,-7.519837418E0,-8.509648236E0,-4.139439257E0,1.208706024E1
9.514183167E0,-6.912162607E0,-8.852521945E0,-4.591402715E0,1.213367692E1
9.524119167E0,-6.216081405E0,-9.227931316E0,-4.838296133E0,1.213274470E1
9.534054167E0,-5.409112435E0,-9.629935579E0,-4.930966315E0,1.209580859E1
9.543990167E0,-4.377715634E0,-9.952094357E0,-4.836745452E0,1.189969255E1
9.553926167E0,-3.178778563E0,-1.019558411E1,-4.516041168E0,1.159522300E1
9.563861167E0,-1.847457606E0,-1.039545598E1,-3.857106450E0,1.124081290E1
9.573797167E0,-1.399817580E-1,-1.037983923E1,-2.719680918E0,1.073113795E1
9.583732167E0,1.599022277E0,-9.746887493E0,-1.085408701E0,9.936639276E0
9.593668167E0,3.406881954E0,-8.778871586E0,7.548112214E-1,9.446966230E0
9.603603167E0,5.336528608E0,-7.667893596E0,2.634027395E0,9.706349988E0
9.613539167E0,6.671096524E0,-6.939979566E0,4.255835102E0,1.052515927E1
9.623475167E0,7.818363504E0,-6.800831621E0,5.105827884E0,1.155195209E1
9.633410167E0,8.844425306E0,-6.206073310E0,5.693463117E0,1.221289184E1
9.643346167E0,9.620368949E0,-5.513389925E0,6.201818292E0,1.270478324E1
9.653281167E0,1.025627119E1,-4.895182233E0,6.764268982E0,1.322532581E1
9.663217167E0,1.059981967E1,-3.664509983E0,8.075909380E0,1.382046030E1
9.673153167E0,1.077461517E1,-2.575341815E0,9.505661196E0,1.459733922E1
9.683088167E0,1.077149158E1,-1.927887519E0,1.018853120E1,1.495151996E1
9.693024167E0,1.024225425E1,-1.033647833E0,1.035328352E1,1.460009176E1
9.702959167E0,9.712678943E0,-6.068636553E-1,9.729461036E0,1.376106202E1
9.712895167E0,9.545472549E0,-6.317333253E-1,8.685193344E0,1.292082492E1
9.722830167E0,9.680373076E0,-1.609834948E-1,7.904185427E0,1.249846734E1
9.732766167E0,1.073627848E1,3.649206358E-1,7.356546319E0,1.301996991E1
9.742702167E0,1.201016692E1,9.922850677E-1,6.805148621E0,1.383975386E1
9.752637167E0,1.305452173E1,1.688236755E0,6.389001113E0,1.463181521E1
9.762573167E0,1.396777028E1,2.214111941E0,6.633663819E0,1.562070401E1
9.772508250E0,1.453534547E1,2.443225147E0,7.740750487E0,1.664826823E1
9.782444250E0,1.463047499E1,2.287258563E0,8.703633124E0,1.717659977E1
9.792379250E0,1.429045472E1,1.675994731E0,8.882557923E0,1.690934327E1
9.802315250E0,1.357730257E1,9.517293647E-1,8.859571348E0,1.624010278E1
9.812251250E0,1.260437033E1,1.715663704E-1,8.789707646E0,1.536745089E1
9.822186250E0,1.167749075E1,-9.497492051E-1,8.196956685E0,1.429880809E1
9.832122250E0,1.069161043E1,-2.055599041E0,7.261266525E0,1.308671130E1
9.842057250E0,9.768258482E0,-2.927322270E0,6.477629700E0,1.208088473E1
9.851993250E0,9.029475063E0,-3.939907701E0,5.756790217E0,1.141029913E1
9.861928250E0,8.524693122E0,-4.928362550E0,5.210273189E0,1.114029160E1
9.871864250E0,8.169720939E0,-5.689387023E0,4.863475413E0,1.108002067E1
9.881800250E0,7.944016076E0,-6.510801539E0,4.603214090E0,1.125555454E1
9.891735250E0,7.857895360E0,-7.434602555E0,4.468166213E0,1.170403110E1
9.901671250E0,7.486809420E0,-8.227455761E0,4.435855669E0,1.197581559E1
9.911606250E0,6.725350499E0,-9.037679291E0,4.255322886E0,1.204233197E1
9.921542250E0,5.748198318E0,-9.961013700E0,3.658667738E0,1.206853046E1
9.931477250E0,4.664499342E0,-1.072358535E1,2.754925010E0,1.201426022E1
9.941413250E0,3.759124657E0,-1.133205596E1,1.801368683E0,1.207441260E1
9.951349250E0,2.951757492E0,-1.190305645E1,1.025783474E0,1.230641527E1
9.961284250E0,2.001763288E0,-1.214015169E1,3.892780897E-1,1.231023463E1
9.971220250E0,1.116505364E0,-1.199882449E1,8.298368454E-2,1.205094435E1
9.981155250E0,3.398694098E-1,-1.191737511E1,-1.108409894E-1,1.192273570E1
9.991091250E0,-4.176142815E-1,-1.198867489E1,-6.449136803E-1,1.201326937E1
1.000102725E1,-1.063170571E0,-1.182605213E1,-1.331093793E0,1.194812334E1
1.001096225E1,-1.718030950E0,-1.150167901E1,-1.897939835E0,1.178314160E1
1.002089825E1,-2.317412654E0,-1.100039721E1,-2.255554375E0,1.146589141E1
1.003083325E1,-2.861042619E0,-1.041189367E1,-2.378154407E0,1.105661399E1
1.004076925E1,-3.666787474E0,-9.894190550E0,-2.135863040E0,1.076579063E1
1.005070425E1,-5.020061510E0,-9.692507803E0,-1.899889004E0,1.107949923E1
1.006064025E1,-6.465279211E0,-9.588100505E0,-2.182342557E0,1.176835271E1
1.007057625E1,-7.725860553E0,-9.420378386E0,-2.711285486E0,1.248132682E1
1.008051125E1,-8.856202183E0,-9.077189512E0,-3.223084670E0,1.308495171E1
1.009044725E1,-9.724834135E0,-8.588354682E0,-3.731513520E0,1.350023808E1
1.010038225E1,-1.032140333E1,-8.066157979E0,-4.124979678E0,1.373352571E1
1.011031825E1,-1.082131922E1,-7.666665680E0,-4.484785754E0,1.399971484E1
1.012025325E1,-1.100329509E1,-7.492736158E0,-4.851687427E0,1.416871444E1
1.013018925E1,-1.077136528E1,-7.296135811E0,-5.091389354E0,1.397061750E1
1.014012525E1,-1.029410268E1,-7.070429193E0,-5.241058195E0,1.354356711E1
1.015006025E1,-9.806164227E0,-6.864791390E0,-5.282847075E0,1.308413890E1
1.015999625E1,-9.488539964E0,-6.725720043E0,-5.017651872E0,1.266667009E1
1.016993125E1,-9.323543817E0,-6.693821143E0,-4.520247363E0,1.233565349E1
1.017986725E1,-9.281714006E0,-6.776803658E0,-4.198621851E0,1.223534667E1
1.018980225E1,-9.246984469E0,-6.805877768E0,-4.114749097E0,1.219663290E1
1.019973825E1,-9.160925149E0,-6.900116174E0,-4.179558173E0,1.220667274E1
1.020967425E1,-8.945264633E0,-7.128545254E0,-4.269874851E0,1.220924846E1
1.021960925E1,-8.686163982E0,-7.327079861E0,-4.334460564E0,1.216236377E1
1.022954525E1,-8.387266012E0,-7.524423389E0,-4.480114413E0,1.212578260E1
1.023948025E1,-7.896372963E0,-7.892282251E0,-4.803984087E0,1.215397417E1
1.024941625E1,-7.318295588E0,-8.234355476E0,-5.104201773E0,1.214145527E1
1.025935125E1,-6.631281078E0,-8.539953770E0,-5.222248871E0,1.200735535E1
1.026928725E1,-5.757471417E0,-8.930643670E0,-5.045607410E0,1.176278146E1
1.027922325E1,-4.737088432E0,-9.274351192E0,-4.652061730E0,1.140593158E1
1.028915825E1,-3.658787606E0,-9.496395113E0,-3.991159716E0,1.093149591E1
1.029909425E1,-2.390489109E0,-9.626735982E0,-3.262201958E0,1.044176448E1
1.030902925E1,-1.210812766E0,-9.626976888E0,-2.342142575E0,9.981502061E0
1.031896525E1,-9.918398023E-2,-9.512393680E0,-9.741589916E-1,9.562659501E0
1.032890025E1,1.164677065E0,-9.488233570E0,3.725799036E-1,9.566706054E0
1.033883625E1,2.375405631E0,-9.084914854E0,1.569329531E0,9.520558019E0
1.034877225E1,3.359476823E0,-8.270200077E0,2.677775093E0,9.319483531E0
1.035870725E1,4.421584954E0,-7.546497213E0,3.300526949E0,9.348449702E0
1.036864325E1,5.352116116E0,-6.666108849E0,3.538748946E0,9.252291511E0
1.037857825E1,5.830340588E0,-5.708129688E0,3.647639304E0,8.937610889E0
1.038851425E1,6.151278468E0,-5.630250623E0,3.434067414E0,9.018357271E0
1.039844925E1,6.547727875E0,-5.209807751E0,3.787800572E0,9.184893592E0
1.040838525E1,7.034205108E0,-4.017184503E0,5.256375561E0,9.656463994E0
1.041832125E1,8.081225669E0,-3.168678668E0,6.762246430E0,1.100339537E1
1.042825625E1,9.461955013E0,-2.224569248E0,8.006225188E0,1.259273373E1
1.043819225E1,1.082923050E1,-1.088493546E0,9.166882877E0,1.422985569E1
1.044812725E1,1.253861020E1,-2.963550156E-1,9.806787540E0,1.592098156E1
1.045806325E1,1.406158067E1,1.413801196E-1,9.862334919E0,1.717596254E1
1.046799825E1,1.534782661E1,6.981707051E-1,9.772726924E0,1.820849844E1
1.047793425E1,1.657579569E1,1.488076915E0,1.002072079E1,1.942643098E1
1.048787025E1,1.763883704E1,2.118814021E0,1.051276515E1,2.064306605E1
1.049780525E1,1.802252899E1,2.213855833E0,1.115371004E1,2.131004356E1
1.050774125E1,1.797202659E1,1.932787778E0,1.207976048E1,2.174051567E1
1.051767625E1,1.741640661E1,1.337960763E0,1.251658608E1,2.148921323E1
1.052761225E1,1.620864551E1,7.363977545E-1,1.220977449E1,2.030618290E1
1.053754725E1,1.449157321E1,-1.354130360E-1,1.150857872E1,1.850598322E1
1.054748325E1,1.271598900E1,-1.246917568E0,1.049104275E1,1.653218550E1
1.055741925E1,1.139815874E1,-2.300555131E0,9.286774771E0,1.488135619E1
1.056735425E1,1.029287476E1,-3.209229693E0,8.033166234E0,1.344522911E1
1.057729025E1,9.460466897E0,-4.101682616E0,6.823801239E0,1.236480884E1
1.058722525E1,9.087797531E0,-4.754861044E0,5.817319424E0,1.179143642E1
1.059716125E1,8.991348878E0,-5.293723481E0,4.810491453E0,1.148950351E1
1.060709725E1,9.117541732E0,-5.962211089E0,3.888457466E0,1.156709254E1
1.061703225E1,8.967706246E0,-6.621739007E0,3.325370014E0,1.163293895E1
1.062696825E1,8.226113241E0,-7.385126925E0,3.090964494E0,1.147881092E1
1.063690325E1,7.275209211E0,-8.337282844E0,3.112200412E0,1.149455287E1
1.064683925E1,6.110334510E0,-9.464802607E0,3.116855965E0,1.168903192E1
1.065677425E1,4.655830261E0,-1.081084218E1,2.879935557E0,1.211796570E1
1.066671025E1,3.223940118E0,-1.210604956E1,2.475766071E0,1.277026403E1
1.067664625E1,2.059281179E0,-1.308661827E1,1.964387886E0,1.339249926E1
1.068658125E1,1.132118599E0,-1.363248158E1,1.564283384E0,1.376855944E1
1.069651725E1,2.998563284E-1,-1.359833267E1,1.300126061E0,1.366363396E1
1.070645225E1,-3.306156063E-1,-1.330721267E1,1.180888470E0,1.336359657E1
1.071638825E1,-8.799170780E-1,-1.300914734E1,1.041244681E0,1.308038069E1
1.072632325E1,-1.462981250E0,-1.277561773E1,7.490827042E-1,1.288091020E1
1.073625925E1,-2.162754677E0,-1.260459954E1,3.247537726E-1,1.279292392E1
1.074619525E1,-3.012874636E0,-1.251761519E1,-1.792151132E-1,1.287634349E1
1.075613025E1,-3.928349217E0,-1.237897186E1,-6.718713909E-1,1.300470234E1
1.076606625E1,-4.900615173E0,-1.213426822E1,-1.196224840E0,1.314105963E1
1.077600079E1,-5.835553966E0,-1.166154189E1,-1.798379586E0,1.316356405E1
1.078593679E1,-6.869838122E0,-1.106466747E1,-2.549501507E0,1.327107757E1
1.079587179E1,-8.067778242E0,-1.051248683E1,-3.541268219E0,1.371648664E1
1.080580779E1,-9.216796464E0,-9.985605919E0,-4.619503264E0,1.435275141E1
1.081574379E1,-9.959956523E0,-9.411444426E0,-5.578023292E0,1.479494387E1
1.082567879E1,-1.035778237E1,-8.743856705E0,-6.290640421E0,1.494358868E1
1.083561479E1,-1.031939890E1,-8.075136963E0,-6.527318754E0,1.463911612E1
1.084554979E1,-1.006117300E1,-7.597116559E0,-6.367208540E0,1.412390621E1
1.085548579E1,-9.732080589E0,-7.262621909E0,-6.012802368E0,1.355038235E1
1.086542079E1,-9.513671297E0,-6.897290799E0,-5.583171181E0,1.300977949E1
1.087535679E1,-9.225111789E0,-6.662353767E0,-5.384406195E0,1.258894258E1
1.088529279E1,-8.923653324E0,-6.487541900E0,-5.346185285E0,1.225975064E1
1.089522779E1,-8.739140925E0,-6.358366381E0,-5.397187623E0,1.208019211E1
1.090516379E1,-8.691802452E0,-6.311360030E0,-5.433614607E0,1.203764358E1
1.091509879E1,-8.545257195E0,-6.410173881E0,-5.467186981E0,1.200007847E1
1.092503479E1,-8.192159044E0,-6.551974708E0,-5.569637800E0,1.187689806E1
1.093496979E1,-7.900111088E0,-6.609148782E0,-5.706261503E0,1.177514429E1
1.094490579E1,-7.527538201E0,-6.656262138E0,-5.669867263E0,1.153763632E1
1.095484179E1,-7.233230295E0,-6.854845276E0,-5.367329401E0,1.131886696E1
1.096477679E1,-6.970530099E0,-7.324304187E0,-5.056811260E0,1.130509008E1
1.097471279E1,-6.670639272E0,-7.931743940E0,-4.890008324E0,1.145958863E1
1.098464779E1,-6.319882346E0,-8.300482807E0,-4.469908683E0,1.134984631E1
1.099458379E1,-5.626476245E0,-8.413968492E0,-3.829047416E0,1.082190856E1
1.100451879E1,-4.559335415E0,-8.422674412E0,-3.399844830E0,1.016306689E1
1.101445479E1,-3.064964849E0,-8.378885198E0,-3.384393563E0,9.542213919E0
1.102439079E1,-1.457489837E0,-8.428667808E0,-3.760796376E0,9.343998449E0
1.103432579E1,-1.843966234E-1,-8.607430054E0,-4.525762457E0,9.726478297E0
1.104426179E1,8.026736051E-1,-9.003284215E0,-5.135521799E0,1.039600864E1
1.105419679E1,1.693516206E0,-9.228718936E0,-3.651311941E0,1.006823367E1
1.106413279E1,2.745454860E0,-8.915310516E0,-3.244953257E-1,9.334108485E0
1.107406779E1,4.108752485E0,-8.360282282E0,2.942083274E0,9.768931405E0
1.108400379E1,5.654505458E0,-7.649610522E0,5.619473619E0,1.104845948E1
1.109393979E1,6.980432943E0,-6.321813097E0,7.786457587E0,1.221968439E1
1.110387479E1,8.061283740E0,-5.137692286E0,8.765258684E0,1.296957738E1
1.111381079E1,8.620455896E0,-4.309554934E0,8.064863405E0,1.256688288E1
1.112374579E1,8.164489435E0,-3.545366240E0,6.304571412E0,1.090761799E1
1.113368179E1,7.504877901E0,-2.910672031E0,4.407315409E0,9.177125536E0
1.114361779E1,7.019482988E0,-2.626348831E0,2.814635607E0,8.005811839E0
1.115355279E1,6.762123054E0,-2.116313167E0,2.364112903E0,7.469546133E0
1.116348879E1,7.739353003E0,-1.284736190E0,2.996926063E0,8.398196105E0
1.117342379E1,9.394786293E0,-5.919500394E-1,4.738481823E0,1.053876769E1
1.118335979E1,1.100200403E1,1.161499688E-1,6.679822909E0,1.287158178E1
1.119329479E1,1.248617822E1,7.621459687E-1,7.992957855E0,1.484496171E1
1.120323079E1,1.377938235E1,1.378980150E0,9.166775873E0,1.660730996E1
1.121316679E1,1.491317500E1,2.074185440E0,1.044040352E1,1.832231043E1
1.122310179E1,1.603691746E1,2.759505719E0,1.145425575E1,1.989968765E1
1.123303779E1,1.674832831E1,2.777766573E0,1.178242956E1,2.066514299E1
1.124297279E1,1.691152878E1,2.558223506E0,1.162653344E1,2.068140694E1
1.125290879E1,1.637737978E1,2.227374596E0,1.137422608E1,2.006371813E1
1.126284379E1,1.562583949E1,1.383590095E0,1.091260946E1,1.910932303E1
1.127277979E1,1.453401347E1,3.947142461E-1,1.042427105E1,1.789018653E1
1.128271579E1,1.311136369E1,-6.209626079E-1,9.547747700E0,1.623123342E1
1.129265079E1,1.182210877E1,-1.690261938E0,8.335018802E0,1.456337116E1
1.130258679E1,1.055571178E1,-2.558712626E0,7.393987795E0,1.313929667E1
1.131252179E1,9.382007203E0,-3.555193363E0,6.610085506E0,1.201476964E1
1.132245779E1,8.492094895E0,-4.778204883E0,5.913933553E0,1.139831249E1
1.133239279E1,7.810427663E0,-5.960955691E0,5.468409049E0,1.124452180E1
1.134232879E1,7.123716624E0,-6.844747719E0,5.135921164E0,1.113443290E1
1.135226479E1,6.477368329E0,-7.593203602E0,4.737427570E0,1.104790756E1
1.136219979E1,5.900011917E0,-8.471530822E0,4.183176430E0,1.113893802E1
1.137213579E1,5.325373290E0,-9.252419456E0,3.733036720E0,1.130939563E1
1.138207079E1,4.544678784E0,-1.001279196E1,3.369216530E0,1.150050991E1
1.139200679E1,3.518906420E0,-1.095650100E1,2.856638496E0,1.185698106E1
1.140194179E1,2.363584900E0,-1.185192021E1,2.270823501E0,1.229679575E1
1.141187779E1,1.093670232E0,-1.253393477E1,1.565077436E0,1.267852920E1
1.142181379E1,6.488012016E-2,-1.287960695E1,7.377706808E-1,1.290088331E1
1.143174879E1,-3.587635177E-1,-1.274149689E1,2.280916965E-1,1.274858738E1
1.144168479E1,-7.128381532E-1,-1.236636760E1,7.186871231E-2,1.238710422E1
1.145161979E1,-1.272896455E0,-1.214280399E1,-1.769917095E-1,1.221062161E1
1.146155579E1,-1.887963608E0,-1.195573636E1,-6.923199812E-1,1.212366881E1
1.147149079E1,-2.627746023E0,-1.159590806E1,-1.486390285E0,1.198246590E1
1.148142679E1,-3.419750506E0,-1.124790751E1,-2.341954880E0,1.198727949E1
1.149136279E1,-4.256088871E0,-1.091361869E1,-3.353388117E0,1.218468617E1
1.150129779E1,-5.138979843E0,-1.034837420E1,-4.201269177E0,1.229425171E1
1.151123379E1,-5.941631813E0,-9.672491614E0,-4.747797022E0,1.230453815E1
1.152116879E1,-6.498121852E0,-8.801545919E0,-4.885064795E0,1.198151310E1
1.153110479E1,-6.606109400E0,-7.913838596E0,-4.560038250E0,1.127224341E1
1.154103979E1,-6.610666720E0,-7.114520708E0,-4.569370406E0,1.073296163E1
1.155097579E1,-6.607352518E0,-6.089135429E0,-5.153340604E0,1.035816571E1
1.156091179E1,-6.052230728E0,-5.053473669E0,-5.688740906E0,9.722595641E0
1.157084679E1,-5.472357089E0,-4.156311983E0,-6.041309883E0,9.149811283E0
1.158078279E1,-5.034757901E0,-3.368300856E0,-6.010785663E0,8.533685140E0
1.159071779E1,-4.495687888E0,-2.861371232E0,-5.473016070E0,7.638884723E0
1.160065379E1,-4.027943380E0,-2.493256847E0,-4.526268826E0,6.551928499E0
1.161058879E1,-3.582178848E0,-2.155324035E0,-3.764927726E0,5.626020599E0
1.162052479E1,-3.174728197E0,-1.764186239E0,-3.216976376E0,4.851823288E0
1.163046079E1,-2.690607977E0,-1.426851012E0,-2.869857589E0,4.184657414E0
1.164039579E1,-2.345374331E0,-1.085834963E0,-2.672208836E0,3.717595780E0
1.165033179E1,-2.205250486E0,-8.595874786E-1,-2.594411632E0,3.511835995E0
1.166026679E1,-2.007568989E0,-7.210306871E-1,-2.313602316E0,3.146899136E0
1.167020279E1,-1.754022608E0,-7.216048837E-1,-1.810645291E0,2.622164237E0
1.168013779E1,-1.705375382E0,-8.362413007E-1,-1.416889988E0,2.369637513E0
1.169007379E1,-1.485731012E0,-8.789762610E-1,-1.087975921E0,2.040511581E0
1.170000979E1,-1.195104806E0,-7.767955828E-1,-6.389401647E-1,1.562027979E0
1.170994479E1,-7.887016833E-1,-6.151399505E-1,-4.037326992E-2,1.001038213E0
1.171988079E1,-2.680091029E-1,-4.128356445E-1,5.197347334E-1,7.158116663E-1
1.172981579E1,-1.522015616E-2,-2.321549267E-1,1.041396417E0,1.067067973E0
1.173975179E1,9.924427964E-2,-1.335737944E-1,1.375857152E0,1.385883938E0
1.174968679E1,2.390418503E-1,-1.172395974E-1,1.337318446E0,1.363563990E0
1.175962279E1,3.447603864E-1,-9.563822865E-2,9.855756801E-1,1.048506469E0
1.176955879E1,2.797555744E-1,1.966594040E-2,5.528083393E-1,6.198765931E-1
1.177949400E1,3.305154727E-1,9.352738380E-2,-5.711531013E-2,3.482097183E-1
1.178943000E1,5.936847621E-1,1.197989237E-1,-5.458954686E-1,8.153620310E-1
1.179936500E1,8.029973947E-1,2.903347224E-1,-6.214306775E-1,1.056065885E0
1.180930100E1,8.373892553E-1,4.911333704E-1,-3.329170704E-1,1.026287741E0
1.181923600E1,8.615353324E-1,5.393512648E-1,8.431304902E-2,1.019927255E0
1.182917200E1,9.689305575E-1,4.993761903E-1,5.503399372E-1,1.221096659E0
1.183910800E1,9.786867830E-1,5.058350247E-1,9.091727445E-1,1.428387892E0
1.184904300E1,9.193898767E-1,4.636502874E-1,1.002856249E0,1.437348250E0
1.185897900E1,7.965737897E-1,3.653439742E-1,8.303663108E-1,1.207275541E0
1.186891400E1,6.323450902E-1,2.445545322E-1,4.755452782E-1,8.281367906E-1
1.187885000E1,5.272362725E-1,1.909987146E-1,1.381980649E-1,5.775441985E-1
1.188878500E1,4.525778536E-1,2.808154553E-1,-4.640087217E-2,5.346373299E-1
1.189872100E1,1.867787790E-1,2.800488853E-1,-1.528935796E-1,3.697162928E-1
1.190865700E1,5.875324680E-1,2.874239784E-1,5.088130116E-2,6.560456167E-1
1.191859200E1,3.111301695E0,8.151398689E-1,1.445052225E0,3.526021437E0
1.192852800E1,1.531200861E0,1.175100312E0,1.389839306E0,2.378463815E0
1.193846300E1,-2.695822231E-1,2.986611575E-1,1.053762401E0,1.127957561E0
1.194839900E1,5.241575673E-1,-1.948116839E-2,1.264924361E0,1.369362739E0
1.195833400E1,2.456602407E-1,1.363079524E-1,7.162862563E-1,7.694119915E-1
1.196827000E1,-8.711561948E-2,8.357308388E-2,5.788977385E-2,1.338835965E-1
1.197820600E1,-1.063987134E-1,-8.185926497E-2,-4.647095105E-1,4.837112306E-1
1.198814100E1,-3.032045902E-1,-1.520895875E-1,-6.871489960E-1,7.663145626E-1
1.199807700E1,-5.922093634E-1,-1.597605497E-1,-7.395608059E-1,9.608254519E-1
1.200801200E1,-6.544626220E-1,-1.696487761E-1,-7.166613552E-1,9.852438930E-1
1.201794800E1,-6.329277653E-1,-2.223631793E-1,-6.382604259E-1,9.259693898E-1
1.202788300E1,-5.352438882E-1,-2.580200851E-1,-4.932898235E-1,7.722662974E-1
1.203781900E1,-4.555007306E-1,-2.775480312E-1,-2.367350507E-1,5.835728827E-1
1.204775500E1,-3.272812316E-1,-2.947657424E-1,1.129620668E-1,4.547090014E-1
1.205769000E1,-1.732271259E-1,-2.364099455E-1,5.152981585E-1,5.928148882E-1
1.206762600E1,-1.983229369E-3,-1.510154539E-1,7.793949625E-1,7.938930080E-1
1.207756100E1,8.948432654E-2,-1.205958992E-1,7.545896119E-1,7.693869624E-1
1.208749700E1,6.787623346E-2,-9.314322174E-2,5.163296074E-1,5.290360160E-1
1.209743200E1,8.792034253E-2,-4.658769071E-2,1.181105402E-1,1.544360685E-1
1.210736800E1,1.912080449E-1,3.201876819E-2,-2.634372380E-1,3.270854572E-1
1.211730400E1,3.047254510E-1,1.546617776E-1,-5.079593182E-1,6.122095514E-1
1.212723900E1,3.546429849E-1,1.755959791E-1,-5.769675726E-1,6.996407467E-1
1.213717500E1,3.149934541E-1,1.548424566E-1,-5.238263226E-1,6.305482366E-1
1.214711000E1,2.161240540E-1,1.806298470E-1,-4.128014383E-1,4.997417091E-1
1.215704600E1,2.281932919E-1,1.742692459E-1,-1.972058263E-1,3.483275563E-1
1.216698100E1,2.823893796E-1,1.409325153E-1,-6.674625903E-2,3.225845605E-1
1.217691700E1,3.274681963E-1,1.452828437E-1,-7.659647852E-2,3.663462089E-1
1.218685300E1,2.411925294E-1,1.679261863E-1,-1.030934286E-1,3.114503095E-1
1.219678800E1,7.934013829E-2,1.054597968E-1,-1.016664156E-1,1.665913754E-1
1.220672400E1,-1.245345837E-1,-5.732025504E-3,-8.448057175E-3,1.249523442E-1
1.221665900E1,-2.725328743E-1,-5.825054705E-2,6.861502916E-2,2.870110034E-1
1.222659500E1,-3.447359012E-1,-1.481614280E-1,1.813932011E-1,4.167710927E-1
1.223653000E1,-2.857050432E-1,-2.031416273E-1,3.466951570E-1,4.930430249E-1
1.224646600E1,-1.151376696E-1,-2.021826839E-1,3.768004239E-1,4.428465649E-1
1.225640200E1,-3.119752675E-2,-2.493662059E-2,-1.552228180E0,1.552741911E0
1.226633700E1,5.982195702E-1,1.569977403E-1,-7.438634795E-1,9.673922786E-1
1.227627300E1,5.737717769E-1,-4.579188466E-2,9.779061797E-1,1.134729679E0
1.228620800E1,2.435220601E-1,-8.776436806E-2,5.532296312E-1,6.107934208E-1
1.229614400E1,6.346830994E-2,-8.653294444E-2,5.467205107E-1,5.571530254E-1
1.230607900E1,-4.665098682E-2,-2.147214532E-1,6.217016959E-1,6.593895781E-1
1.231601500E1,-1.151990654E-1,-2.617856920E-1,3.441881633E-1,4.475132008E-1
1.232595100E1,-1.038323705E-1,-3.358722532E-1,5.630459368E-2,3.560358674E-1