"Time (s)","Linear Acceleration x (m/s^2)","Linear Acceleration y (m/s^2)","Linear Acceleration z (m/s^2)","Absolute acceleration (m/s^2)"
2.774404164E-2,3.872377038E-1,1.375938721E0,1.567457253E0,2.121339822E0
3.770204168E-2,5.933277896E-1,1.613536820E0,1.540272962E0,2.308241698E0
4.766104172E-2,7.918264353E-1,1.971972309E0,1.373721457E0,2.530370434E0
5.761904165E-2,9.996481740E-1,2.363429949E0,1.071962444E0,2.781043163E0
6.757704169E-2,1.351371059E0,2.811234282E0,3.935550356E-1,3.143903226E0
7.753504172E-2,1.363674771E0,2.817255744E0,6.392714095E-1,3.194558928E0
8.749404165E-2,1.239855301E0,2.550553713E0,1.044618233E0,3.022216515E0
9.745204169E-2,1.155263633E0,2.258658954E0,1.176438739E0,2.796458910E0
1.074100417E-1,1.141216574E0,2.070212549E0,1.158353886E0,2.632477729E0
1.173680417E-1,1.088793362E0,2.144488560E0,1.141955077E0,2.662398086E0
1.273270417E-1,1.114967546E0,2.455555755E0,1.042630179E0,2.891363759E0
1.372850416E-1,1.194472137E0,2.755915529E0,7.069891834E-1,3.085719980E0
1.472430417E-1,1.327756787E0,2.987002169E0,3.891047198E-1,3.291887380E0
1.572010417E-1,1.569783275E0,3.054164457E0,4.002822572E-1,3.457219396E0
1.671600416E-1,1.923591278E0,2.829196928E0,6.167333168E-1,3.476336958E0
1.771180417E-1,2.077287095E0,2.674654434E0,1.099751337E0,3.560667215E0
1.870760417E-1,2.080608021E0,2.460288491E0,1.532778879E0,3.568103178E0
1.970340416E-1,1.912023146E0,2.372844551E0,1.606033673E0,3.444643368E0
2.069930417E-1,1.778442627E0,2.491410881E0,1.243223882E0,3.303875297E0
2.169510417E-1,1.677738664E0,2.547515500E0,6.660399628E-1,3.122218999E0
2.269090416E-1,1.689780712E0,2.554224011E0,3.141331825E-1,3.078652109E0
2.368670417E-1,1.923302133E0,2.339480338E0,1.602066922E-1,3.032808192E0
2.468260417E-1,2.085945652E0,2.072084827E0,1.748314556E-1,2.945381271E0
2.567840416E-1,2.140148172E0,1.816160384E0,3.593228039E-1,2.829803106E0
2.667420417E-1,2.078907066E0,1.639190894E0,6.495996389E-1,2.725945904E0
2.767000417E-1,2.024400491E0,1.547951526E0,8.075149535E-1,2.673281070E0
2.866590417E-1,1.916505622E0,1.400171921E0,7.272930551E-1,2.482424298E0
2.966170417E-1,1.790491400E0,1.178717399E0,4.786692993E-1,2.196442228E0
3.065750417E-1,1.562299424E0,8.146966499E-1,3.096730725E-1,1.788968287E0
3.165340417E-1,1.457478728E0,4.298229754E-1,4.029890795E-1,1.572066230E0
3.264920417E-1,1.364397779E0,-5.410019338E-2,6.280039711E-1,1.502962780E0
3.364500416E-1,1.365857244E0,-6.266846931E-1,7.972042657E-1,1.701127378E0
3.464080417E-1,1.361520364E0,-1.191524556E0,8.550038463E-1,2.001124695E0
3.563670417E-1,1.151458557E0,-1.583290343E0,7.062296301E-1,2.081207681E0
3.663250416E-1,8.182309994E-1,-1.849477234E0,4.495759662E-1,2.071759291E0
3.762830417E-1,5.145833364E-1,-2.087544866E0,2.791120883E-1,2.168073600E0
3.862410417E-1,3.420293713E-1,-2.308145694E0,3.073881269E-1,2.353509740E0
3.962000416E-1,2.341877112E-1,-2.537472907E0,4.146623147E-1,2.581774094E0
4.061580417E-1,1.689684525E-1,-2.948222850E0,4.336318517E-1,2.984728613E0
4.161160417E-1,7.723177850E-2,-3.524202243E0,3.660718795E-1,3.544005477E0
4.260740416E-1,-2.453306039E-1,-4.127831950E0,2.840699790E-1,4.144861815E0
4.360325000E-1,-7.831222701E-1,-4.845361324E0,2.019756925E-1,4.912392597E0
4.459905000E-1,-1.485434412E0,-5.319721956E0,1.960062518E-1,5.526696620E0
4.559485000E-1,-2.258232838E0,-5.763609239E0,8.183644256E-2,6.190759583E0
4.659065000E-1,-2.911395916E0,-6.142983023E0,-3.705520892E-1,6.808066939E0
4.758655000E-1,-3.299977310E0,-6.428144714E0,-9.936612099E-1,7.293713547E0
4.858235000E-1,-3.347178374E0,-6.607295215E0,-1.348502415E0,7.528506618E0
4.957815000E-1,-3.194225153E0,-6.690856605E0,-1.416908991E0,7.548395029E0
5.057395000E-1,-2.914904246E0,-6.793320873E0,-1.311240449E0,7.507677854E0
5.156985000E-1,-2.671039100E0,-6.927644865E0,-9.381880903E-1,7.483776463E0
5.256565000E-1,-2.633520441E0,-7.052958298E0,-3.421661961E-1,7.536360419E0
5.356145001E-1,-2.841817558E0,-7.269538581E0,2.179982328E-1,7.808305927E0
5.455725000E-1,-3.202172104E0,-7.416965014E0,5.729622298E-1,8.098985240E0
5.555315000E-1,-3.458531579E0,-7.474907413E0,7.424303269E-1,8.269636286E0
5.654895001E-1,-3.509415219E0,-7.541763307E0,7.881923908E-1,8.355563189E0
5.754475000E-1,-3.399686370E0,-7.431637432E0,7.090427256E-1,8.203038701E0
5.854055000E-1,-3.209371488E0,-7.005626256E0,4.642057729E-1,7.719737793E0
5.953645000E-1,-2.924262422E0,-6.516925328E0,2.773919106E-3,7.142942960E0
6.053225000E-1,-2.633675977E0,-6.077436320E0,-5.182247265E-1,6.643796975E0
6.152805000E-1,-2.367022478E0,-5.583491024E0,-8.314261186E-1,6.121228375E0
6.252395000E-1,-2.246511948E0,-5.108277283E0,-8.264618325E-1,5.641307640E0
6.351975000E-1,-2.252586036E0,-4.782982058E0,-5.707934976E-1,5.317599687E0
6.451555000E-1,-2.309684389E0,-4.641144394E0,-2.907960677E-1,5.192246683E0
6.551135000E-1,-2.192525775E0,-4.530015137E0,-2.439873523E-1,5.038624439E0
6.650725000E-1,-1.838088905E0,-4.407523570E0,-5.187917968E-1,4.803538255E0
6.750305000E-1,-1.269652712E0,-4.342842255E0,-1.059000921E0,4.646910782E0
6.849885000E-1,-6.715527177E-1,-4.250389590E0,-1.845176607E0,4.682037102E0
6.949465000E-1,-4.079935652E-1,-3.994382116E0,-2.771139339E0,4.878602308E0
7.049055001E-1,-7.125522244E-1,-3.740405381E0,-3.419989657E0,5.118075062E0
7.148635000E-1,-1.052149739E0,-3.562888591E0,-3.367548904E0,5.014137992E0
7.248215000E-1,-1.073433896E0,-3.223927839E0,-2.397567748E0,4.158641863E0
7.347795001E-1,-6.991024590E-1,-2.809912226E0,-9.799717087E-1,3.056909471E0
7.447385000E-1,1.059427768E-2,-2.482516097E0,1.923710561E-1,2.489980930E0
7.546965000E-1,8.757339799E-1,-2.196807107E0,8.354998738E-1,2.508172942E0
7.646545001E-1,1.649261554E0,-1.968480352E0,8.156947696E-1,2.694501165E0
7.746125000E-1,1.943827906E0,-1.570942193E0,3.480537575E-1,2.523384180E0
7.845715000E-1,1.618833228E0,-1.082966904E0,-6.654789224E-2,1.948811679E0
7.945295001E-1,1.313395733E0,-4.569932324E-1,-2.352466419E-2,1.390828737E0
8.044875000E-1,1.549901572E0,2.907832038E-1,4.425878857E-1,1.637874779E0
8.144455000E-1,2.181099147E0,9.209534222E-1,1.156524292E0,2.634937785E0
8.244045000E-1,3.046236802E0,1.323695603E0,1.894917701E0,3.823930151E0
8.343625000E-1,4.007279320E0,1.612717041E0,2.510916023E0,4.996382999E0
8.443205000E-1,4.784252073E0,1.752693536E0,3.001665816E0,5.913628345E0
8.542795000E-1,5.421292185E0,1.936873813E0,3.288342228E0,6.629863025E0
8.642375000E-1,6.229955678E0,2.548624717E0,3.475086216E0,7.575226723E0
8.741955000E-1,7.133928201E0,3.512508397E0,3.722169085E0,8.779817168E0
8.841535000E-1,8.227745783E0,4.565483762E0,3.928109189E0,1.019654277E1
8.941125000E-1,9.355600008E0,5.455269771E0,3.977857592E0,1.153735545E1
9.040705001E-1,1.035875885E1,6.059386550E0,3.876525053E0,1.261140344E1
9.140285000E-1,1.096246048E1,6.272945577E0,3.795679403E0,1.318834971E1
9.239865000E-1,1.099388809E1,6.161892918E0,3.707783765E0,1.313705295E1
9.339455001E-1,1.048350569E1,5.855131028E0,3.609466342E0,1.253852855E1
9.439035000E-1,9.590875009E0,5.542147701E0,3.644105247E0,1.166103716E1
9.538615000E-1,8.361734730E0,5.148204410E0,3.671190720E0,1.048333237E1
9.638195001E-1,7.438843541E0,5.068757706E0,3.480013080E0,9.650864673E0
9.737785000E-1,7.346387367E0,5.162676854E0,2.827568479E0,9.413701883E0
9.837365000E-1,7.669715003E0,5.361805537E0,1.734468935E0,9.517450779E0
9.936945001E-1,7.965406360E0,5.437129369E0,6.112293327E-1,9.663522937E0
1.003652500E0,7.953948156E0,5.303226961E0,-3.330603272E-1,9.565586059E0
1.013611500E0,7.546551007E0,4.895487750E0,-9.170976220E-1,9.041974367E0
1.023569500E0,6.702257506E0,4.390035717E0,-8.919221427E-1,8.061525562E0
1.033527500E0,5.808731033E0,4.028627504E0,-4.686445405E-1,7.084548220E0
1.043486500E0,5.166710848E0,3.899299958E0,5.156586394E-2,6.473183157E0
1.053444500E0,5.027755276E0,4.036518906E0,5.945933463E-1,6.474978706E0
1.063402500E0,5.348920612E0,4.173653070E0,9.012605115E-1,6.844165557E0
1.073360500E0,5.754854788E0,3.972957918E0,7.473700547E-1,7.032873541E0
1.083319500E0,5.924657346E0,3.375043865E0,2.389757403E-1,6.822726373E0
1.093277500E0,5.688140396E0,2.556030216E0,-2.348580579E-1,6.240463920E0
1.103235500E0,5.153215474E0,1.679164215E0,-5.142287028E-1,5.444231198E0
1.113193500E0,4.369399724E0,8.663597238E-1,-3.942403293E-1,4.471874166E0
1.123152500E0,3.498574482E0,2.025533974E-1,1.331516437E-1,3.506961740E0
1.133110500E0,2.794022418E0,-4.595291698E-1,7.796326518E-1,2.936929587E0
1.143068500E0,2.234627482E0,-1.113025101E0,1.327404492E0,2.827434799E0
1.153026500E0,1.715402918E0,-1.766131023E0,1.574586178E0,2.922524182E0
1.162985500E0,1.265757297E0,-2.407125022E0,1.655582979E0,3.183920132E0
1.172943500E0,7.324497145E-1,-2.937065778E0,1.703470505E0,3.473420466E0
1.182901500E0,1.629578072E-1,-3.383618807E0,1.750477442E0,3.813083103E0
1.192859500E0,-4.013198456E-1,-3.822285696E0,1.793794785E0,4.241299952E0
1.202818500E0,-1.003294205E0,-4.223804054E0,1.740381639E0,4.677183789E0
1.212776500E0,-1.420353001E0,-4.646353678E0,1.510491193E0,5.087984748E0
1.222734500E0,-1.572118361E0,-4.942608122E0,1.000484326E0,5.282224917E0
1.232693500E0,-1.641036568E0,-5.108688927E0,3.777862644E-1,5.379072971E0
1.242651500E0,-1.641994634E0,-5.327192359E0,-1.188177609E-1,5.575772814E0
1.252609500E0,-1.668728397E0,-5.544862563E0,-2.727256863E-1,5.796941832E0
1.262567500E0,-1.882844078E0,-5.690895604E0,-6.789757580E-2,5.994664685E0
1.272526500E0,-2.150019149E0,-5.803375568E0,4.105540609E-1,6.202443467E0
1.282484500E0,-2.482502064E0,-5.946545228E0,9.895279594E-1,6.519461805E0
1.292442500E0,-2.847806277E0,-6.163478683E0,1.525111863E0,6.958766864E0
1.302400500E0,-3.189340973E0,-6.353822510E0,1.946355804E0,7.370973968E0
1.312359500E0,-3.438179468E0,-6.328382444E0,2.231030860E0,7.539695028E0
1.322317500E0,-3.468305200E0,-6.102515613E0,2.280397732E0,7.380382889E0
1.332275500E0,-3.282578920E0,-5.870723214E0,1.979721917E0,7.011420276E0
1.342233500E0,-3.016869746E0,-5.618056254E0,1.476720014E0,6.545590970E0
1.352192500E0,-2.775829976E0,-5.338960465E0,9.524563198E-1,6.092364397E0
1.362150500E0,-2.661368683E0,-5.141709323E0,5.468070495E-1,5.815415374E0
1.372108500E0,-2.695686284E0,-5.085868998E0,3.888586982E-1,5.769228639E0
1.382067500E0,-2.843511497E0,-5.134723070E0,4.439394696E-1,5.886256950E0
1.392025500E0,-3.113653737E0,-5.169256725E0,6.157176554E-1,6.065901657E0
1.401983500E0,-3.311693961E0,-5.190832951E0,8.032893169E-1,6.209455479E0
1.411941500E0,-3.393634210E0,-5.259492711E0,9.030638659E-1,6.324123740E0
1.421900500E0,-3.465369606E0,-5.273441244E0,8.666148086E-1,6.369379113E0
1.431858500E0,-3.434161846E0,-5.292580351E0,6.809433460E-1,6.345751192E0
1.441816792E0,-3.457253670E0,-5.237263352E0,5.005814476E-1,6.295404049E0
1.451774792E0,-3.514658418E0,-5.188087683E0,3.777957661E-1,6.277882385E0
1.461733792E0,-3.553516674E0,-5.186924087E0,3.078303225E-1,6.294952085E0
1.471691792E0,-3.610175024E0,-5.030383599E0,3.572205837E-1,6.202074605E0
1.481649792E0,-3.681704598E0,-4.803895209E0,4.405995400E-1,6.068482997E0
1.491607792E0,-3.619376203E0,-4.742594755E0,5.542061162E-1,5.991596909E0
1.501566792E0,-3.354004998E0,-4.830622247E0,5.998037271E-1,5.911347168E0
1.511524792E0,-3.031907616E0,-4.879882700E0,6.032024212E-1,5.776640210E0
1.521482792E0,-2.749249703E0,-4.733950816E0,5.266705544E-1,5.499640545E0
1.531441792E0,-2.337181944E0,-4.513608434E0,3.346890691E-1,5.093829336E0
1.541399792E0,-1.928558780E0,-4.182137965E0,9.279078081E-2,4.606324680E0
1.551357792E0,-1.607520913E0,-3.790133611E0,-2.490422702E-1,4.124470672E0
1.561315792E0,-1.454796902E0,-3.533335009E0,-5.796624081E-1,3.864828434E0
1.571274792E0,-1.708463151E0,-3.436248425E0,-7.038923518E-1,3.901552770E0
1.581232792E0,-2.213785374E0,-3.615276135E0,-4.055627315E-1,4.258585252E0
1.591190792E0,-2.426084619E0,-3.919524307E0,2.894770820E-1,4.618696175E0
1.601148792E0,-2.313461690E0,-4.011887510E0,9.890132582E-1,4.735556315E0
1.611107792E0,-1.765636056E0,-3.790935264E0,1.288204612E0,4.375857857E0
1.621065792E0,-1.135399472E0,-3.406879030E0,1.174401569E0,3.778250354E0
1.631023792E0,-6.585157657E-1,-2.951910104E0,8.145968087E-1,3.132249070E0
1.640981792E0,-3.394580582E-1,-2.466822170E0,2.663487129E-1,2.504273353E0
1.650940792E0,-3.218164238E-1,-1.933668369E0,-3.803226404E-1,1.996818590E0
1.660898792E0,-6.570969388E-1,-1.768861088E0,-8.575666078E-1,2.072695448E0
1.670856792E0,-1.203906912E0,-2.173902394E0,-8.278031838E-1,2.619255921E0
1.680815792E0,-1.594123480E0,-2.606240256E0,1.413864054E-2,3.055146125E0
1.690773792E0,-1.516956605E0,-2.653986281E0,1.138539426E0,3.262065687E0
1.700731792E0,-6.066702586E-1,-2.424256779E0,1.732855103E0,3.041028862E0
1.710689792E0,6.614808887E-1,-1.798169087E0,1.722123123E0,2.576174894E0
1.720648792E0,1.496924044E0,-9.740730375E-1,1.241354527E0,2.174985274E0
1.730606792E0,1.811290823E0,-1.786803854E-1,3.378755093E-1,1.851178270E0
1.740564792E0,1.597700806E0,2.628949088E-1,-6.947030870E-1,1.761923375E0
1.750522792E0,1.215817398E0,1.945555758E-1,-1.292391365E0,1.785032004E0
1.760481792E0,1.210387673E0,1.008995533E-1,-1.245585573E0,1.739742067E0
1.770439792E0,1.445767924E0,1.788949782E-1,-6.490643263E-1,1.594845699E0
1.780397792E0,1.990799759E0,3.863553590E-1,1.047984950E-1,2.030649371E0
1.790356792E0,2.751526024E0,8.034267265E-1,5.007040930E-1,2.909827238E0
1.800314792E0,3.389461929E0,1.505226506E0,5.639124942E-1,3.751287286E0
1.810272792E0,4.262563493E0,2.356070643E0,4.251604056E-1,4.888893308E0
1.820230792E0,5.424492951E0,3.173799074E0,3.149661183E-1,6.292640781E0
1.830189792E0,6.598936036E0,3.824694164E0,4.754873908E-1,7.642010894E0
1.840147792E0,7.713623500E0,4.312854810E0,1.025777042E0,8.896792829E0
1.850105792E0,8.800592238E0,4.757109883E0,1.768140126E0,1.015907662E1
1.860063792E0,9.688210099E0,5.121317158E0,2.328414482E0,1.120316109E1
1.870022792E0,1.033508230E1,5.625296862E0,2.517388306E0,1.203308501E1
1.879980792E0,1.060795549E1,6.058476723E0,2.311698462E0,1.243293246E1
1.889938792E0,1.068765771E1,6.227137905E0,1.888740703E0,1.251281804E1
1.899897792E0,1.069779679E1,6.190218585E0,1.386059082E0,1.243715490E1
1.909855792E0,1.063044622E1,6.148829069E0,9.137232669E-1,1.231460011E1
1.919813792E0,1.048220527E1,6.099772099E0,5.262605184E-1,1.213922555E1
1.929771792E0,1.020214703E1,5.904061698E0,2.177841517E-1,1.178936718E1
1.939730792E0,9.661007098E0,5.499242586E0,-1.809954442E-2,1.111652170E1
1.949688792E0,8.837064246E0,4.953592701E0,-1.608482049E-1,1.013201151E1
1.959646792E0,7.823943502E0,4.361155735E0,-1.829114306E-1,8.959197947E0
1.969604792E0,6.812309706E0,3.841383287E0,-5.755655564E-2,7.820939959E0
1.979563792E0,5.961935685E0,3.407836804E0,4.684211768E-2,6.867330120E0
1.989521792E0,5.315942901E0,2.988297327E0,1.028817594E-2,6.098301049E0
1.999479792E0,4.845440846E0,2.604833416E0,-1.049469594E-1,5.502223913E0
2.009437792E0,4.434949350E0,2.279348742E0,-2.804148845E-1,4.994280622E0
2.019396792E0,4.098328069E0,1.948981057E0,-4.185401881E-1,4.557411108E0
2.029354792E0,3.791193711E0,1.652198610E0,-3.791404796E-1,4.152909523E0
2.039312792E0,3.503164546E0,1.385312392E0,-2.080766773E-1,3.772870017E0
2.049271792E0,3.286398321E0,1.164708055E0,3.056748927E-2,3.486817052E0
2.059229792E0,3.087145092E0,9.551941323E-1,3.274627876E-1,3.248090598E0
2.069187792E0,2.872928839E0,7.494206733E-1,6.596735144E-1,3.041466851E0
2.079145792E0,2.654897861E0,4.959579080E-1,8.876728249E-1,2.842959716E0
2.089104792E0,2.488365067E0,1.974581337E-1,9.352714992E-1,2.665648738E0
2.099062792E0,2.404776195E0,4.474347889E-2,8.285961393E-1,2.543918649E0
2.109020792E0,2.362955739E0,-1.169232631E-1,5.714858444E-1,2.433891318E0
2.118978792E0,2.232311400E0,-3.773839760E-1,3.344537187E-1,2.288556782E0
2.128937792E0,1.971968216E0,-6.381966913E-1,2.484224653E-1,2.087502667E0
2.138895792E0,1.673251510E0,-1.013462806E0,2.535552974E-1,1.972604310E0
2.148853792E0,1.341322619E0,-1.458556370E0,2.793683425E-1,2.001144603E0
2.158812792E0,9.256580919E-1,-1.949431293E0,3.171074418E-1,2.181211223E0
2.168770792E0,5.769938850E-1,-2.450997266E0,4.335441434E-1,2.555047957E0
2.178728792E0,2.224766153E-1,-2.721318723E0,6.805678817E-1,2.813937469E0
2.188686792E0,2.860574841E-2,-2.797761712E0,9.393995603E-1,2.951399739E0
2.198645792E0,-8.412681520E-2,-2.824647210E0,1.077633659E0,3.024401343E0
2.208603792E0,-1.910358444E-1,-2.906045129E0,1.098488338E0,3.112598531E0
2.218561792E0,-3.126500362E-1,-3.163059493E0,1.046617688E0,3.346356823E0
2.228519792E0,-5.118673047E-1,-3.591943991E0,9.974028432E-1,3.762829016E0
2.238478792E0,-8.969628811E-1,-4.117611601E0,1.021238579E0,4.336149899E0
2.248436792E0,-1.460107928E0,-4.610180463E0,1.030657055E0,4.944485113E0
2.258394792E0,-2.069465275E0,-5.031872885E0,9.582381928E-1,5.524549908E0
2.268353792E0,-2.556345088E0,-5.328658841E0,9.282701893E-1,5.982573927E0
2.278311792E0,-2.900898995E0,-5.439486966E0,9.316813087E-1,6.234682309E0
2.288269792E0,-3.078540915E0,-5.455520031E0,9.413198590E-1,6.334524138E0
2.298227792E0,-3.145283081E0,-5.484991168E0,9.035914309E-1,6.387050277E0
2.308186792E0,-3.180568688E0,-5.490320320E0,8.334783451E-1,6.399556278E0
2.318144792E0,-3.216089646E0,-5.496603153E0,7.385666330E-1,6.411034200E0
2.328102792E0,-3.269756561E0,-5.507798232E0,6.496489017E-1,6.438104770E0
2.338060792E0,-3.349434522E0,-5.427717690E0,5.929686244E-1,6.405500975E0
2.348019792E0,-3.385036464E0,-5.293968480E0,4.958802862E-1,6.303211196E0
2.357977792E0,-3.295070327E0,-5.142165990E0,3.620889024E-1,6.118044451E0
2.367935792E0,-3.121967016E0,-4.953095103E0,2.709226242E-1,5.861162702E0
2.377894792E0,-2.939645277E0,-4.811989510E0,1.854561388E-1,5.641910260E0
2.387852792E0,-2.873001052E0,-4.753134946E0,9.573748514E-2,5.554781051E0
2.397810792E0,-2.901120312E0,-4.734193475E0,-9.314760715E-3,5.552402515E0
2.407768792E0,-2.986513634E0,-4.843713579E0,-1.348322614E-1,5.692012356E0
2.417727792E0,-3.157019904E0,-4.984047339E0,-2.086076045E-1,5.903475221E0
2.427685792E0,-3.524587867E0,-5.067951375E0,-1.739733768E-1,6.175525687E0
2.437644250E0,-3.945687674E0,-5.067607559E0,-7.897000954E-2,6.423031516E0
2.447602250E0,-4.352415317E0,-5.030363719E0,1.540997140E-2,6.651940747E0
2.457561250E0,-4.591744192E0,-4.954142924E0,7.091978230E-2,6.755196256E0
2.467519250E0,-4.654816938E0,-4.820636373E0,6.009300470E-2,6.701452599E0
2.477477250E0,-4.546800154E0,-4.730709704E0,-5.044027492E-2,6.561672818E0
2.487436250E0,-4.408383695E0,-4.714290138E0,-3.196859177E-1,6.462242443E0
2.497394250E0,-4.352429935E0,-4.709188442E0,-5.658864411E-1,6.437416375E0
2.507352250E0,-4.220433719E0,-4.537181484E0,-6.235236883E-1,6.227909632E0
2.517310250E0,-3.817637744E0,-4.241873120E0,-5.848374863E-1,5.736713379E0
2.527269250E0,-3.299366276E0,-3.930647466E0,-4.957995947E-1,5.155737053E0
2.537227250E0,-2.670770128E0,-3.653947281E0,-3.013692223E-1,4.535985804E0
2.547185250E0,-1.900109444E0,-3.441706216E0,-1.088847303E-1,3.932888692E0
2.557144250E0,-1.197648929E0,-3.169657491E0,-2.366594754E-2,3.388458595E0
2.567102250E0,-6.425595912E-1,-2.985003591E0,-9.016633116E-2,3.054710990E0
2.577060250E0,-4.044574615E-1,-2.851615153E0,-2.643537891E-1,2.892261701E0
2.587018250E0,-3.924089813E-1,-2.485017536E0,-3.300589514E-1,2.537367903E0
2.596977250E0,-1.295219663E-1,-2.019741138E0,-9.578437250E-2,2.026155189E0
2.606935250E0,4.179835331E-1,-1.530953670E0,2.923923576E-1,1.613698443E0
2.616893250E0,9.150617677E-1,-9.657530344E-1,7.102729797E-1,1.508146103E0
2.626851250E0,1.328389163E0,-6.124443841E-1,1.027873853E0,1.787800478E0
2.636810250E0,1.623722085E0,-6.023871732E-1,1.139980180E0,2.073378530E0
2.646768250E0,1.724797640E0,-8.078711951E-1,1.008970975E0,2.155366603E0
2.656726250E0,1.380279109E0,-1.203090933E0,5.643217627E-1,1.916000330E0
2.666685250E0,4.562430346E-1,-1.594992961E0,1.627888227E-1,1.666931448E0
2.676643250E0,-2.257142186E-2,-1.431120064E0,1.681694122E-1,1.441143663E0
2.686601250E0,3.691546047E-1,-8.863297194E-1,3.982643831E-1,1.039456595E0
2.696559250E0,1.025897495E0,-1.379229534E-1,4.248236060E-1,1.118911751E0
2.706518250E0,1.799644339E0,6.315273571E-1,1.847895563E-1,1.916166415E0
2.716476250E0,2.738213668E0,1.146556544E0,-4.495399693E-2,2.968910046E0
2.726434250E0,3.480610081E0,1.513659360E0,-1.962079990E-1,3.800566902E0
2.736392250E0,3.829743819E0,1.669290022E0,-2.643561280E-1,4.186090188E0
2.746351250E0,3.758423576E0,1.284465464E0,-3.201689708E-1,3.984734304E0
2.756309250E0,3.239743972E0,8.651861876E-1,-2.717497129E-2,3.353390318E0
2.766267250E0,2.867266980E0,8.972236669E-1,5.926456388E-1,3.062263721E0
2.776226250E0,3.055787644E0,1.297772557E0,1.219408100E0,3.536807579E0
2.786184250E0,3.656875566E0,2.004468210E0,1.635401899E0,4.479416378E0
2.796142250E0,4.512286963E0,2.759441984E0,1.640040495E0,5.537597541E0
2.806100250E0,5.385579146E0,3.476038728E0,1.257943078E0,6.532207036E0
2.816059250E0,6.067220650E0,3.859479250E0,6.928639184E-1,7.224043667E0
2.826017250E0,6.559988902E0,4.009826367E0,2.178286636E-1,7.691528535E0
2.835975250E0,6.947338872E0,4.125185500E0,2.139496207E-2,8.079797680E0
2.845934250E0,7.375701798E0,4.342660407E0,1.565685546E-1,8.560618560E0
2.855892250E0,7.884190874E0,4.761494125E0,5.121659513E-1,9.224673761E0
2.865850250E0,8.430747077E0,5.220837353E0,8.446653843E-1,9.952291121E0
2.875808250E0,8.897703381E0,5.497727573E0,1.009820721E0,1.050780052E1
2.885767250E0,9.147801073E0,5.571582584E0,8.953022718E-1,1.074831908E1
2.895725250E0,9.144957572E0,5.472982156E0,6.037583452E-1,1.067465722E1
2.905683250E0,8.952405252E0,5.036462950E0,3.022811687E-1,1.027632681E1
2.915641250E0,8.494470618E0,4.470839560E0,2.351773524E-1,9.602069873E0
2.925600250E0,7.804222598E0,3.983632010E0,4.952661824E-1,8.776132573E0
2.935558250E0,7.090329022E0,3.577676784E0,8.425043996E-1,7.986385320E0
2.945516250E0,6.430778884E0,3.191174660E0,1.146919583E0,7.270071341E0
2.955475250E0,5.858217189E0,2.843027932E0,1.388790901E0,6.658097072E0
2.965433250E0,5.328825486E0,2.495989836E0,1.481085691E0,6.067945381E0
2.975391250E0,4.930531867E0,2.118413486E0,1.255861470E0,5.511352667E0
2.985349250E0,4.633599731E0,1.737436396E0,8.605066609E-1,5.022887956E0
2.995308250E0,4.267213199E0,1.431549835E0,5.920117275E-1,4.539704979E0
3.005266250E0,3.854184596E0,1.249575713E0,5.957307029E-1,4.095250106E0
3.015224250E0,3.446316746E0,1.109170032E0,7.773148155E-1,3.702914473E0
3.025183250E0,3.075405638E0,8.309875774E-1,9.112330109E-1,3.313458283E0
3.035141250E0,2.763180694E0,4.190740389E-1,9.508291858E-1,2.952095313E0
3.045099250E0,2.557741111E0,7.353399932E-2,9.760955894E-1,2.738651025E0
3.055057250E0,2.452644426E0,-1.870255315E-1,9.538562894E-1,2.638235215E0
3.065016250E0,2.366976870E0,-4.217620039E-1,8.817074955E-1,2.560834004E0
3.074974250E0,2.139227820E0,-6.530141205E-1,8.475492311E-1,2.391874329E0
3.084932250E0,1.742386065E0,-8.573263603E-1,9.164820564E-1,2.147290629E0
3.094890250E0,1.258980374E0,-1.052985891E0,1.119548839E0,1.986756269E0
3.104849250E0,8.236627704E-1,-1.285776410E0,1.278163919E0,1.991317237E0
3.114807250E0,3.994577998E-1,-1.613538575E0,1.183256593E0,2.040384628E0
3.124765250E0,-3.344314992E-2,-2.035522188E0,8.912864041E-1,2.222354714E0
3.134724250E0,-4.340946588E-1,-2.476397570E0,5.132849622E-1,2.566017255E0
3.144682250E0,-8.603827000E-1,-2.854648688E0,1.276844970E-1,2.984221985E0
3.154640250E0,-1.199123890E0,-3.221379622E0,-1.463148407E-1,3.440434973E0
3.164598250E0,-1.530188562E0,-3.601073248E0,-3.028260927E-1,3.924399217E0
3.174557250E0,-1.897362422E0,-3.906086821E0,-3.006135063E-1,4.352914758E0
3.184515250E0,-2.138177952E0,-4.208026512E0,-1.343082777E-1,4.722004955E0
3.194473250E0,-2.316649007E0,-4.535582271E0,1.512686384E-1,5.095218480E0
3.204432250E0,-2.535697985E0,-4.766398185E0,5.111939979E-1,5.423065114E0
3.214390250E0,-2.692556269E0,-4.907770411E0,8.546617842E-1,5.662730475E0
3.224348250E0,-2.805626509E0,-5.112381443E0,9.653976698E-1,5.911004720E0
3.234306250E0,-2.983881218E0,-5.399857462E0,7.715097729E-1,6.217494275E0
3.244265250E0,-3.262020110E0,-5.651152080E0,4.599233452E-1,6.541240288E0
3.254223250E0,-3.561229736E0,-5.862798482E0,1.996181682E-1,6.862551325E0
3.264181250E0,-3.784449533E0,-5.984843906E0,5.405166149E-2,7.081195974E0
3.274140250E0,-3.870654448E0,-5.980634496E0,1.988053322E-3,7.123900531E0
3.284098250E0,-3.878165197E0,-5.944472390E0,3.828983389E-2,7.097773130E0
3.294056250E0,-3.776711327E0,-5.892265525E0,1.398372587E-1,7.000135422E0
3.304014250E0,-3.553356168E0,-5.823475957E0,2.456100277E-1,6.826385322E0
3.313973250E0,-3.345680317E0,-5.824117396E0,2.600468031E-1,6.721721846E0
3.323931250E0,-3.208122230E0,-5.891460949E0,1.176530687E-1,6.709336971E0
3.333889250E0,-3.235710563E0,-5.954122635E0,-9.416823864E-2,6.777187238E0
3.343848250E0,-3.431177135E0,-6.005623741E0,-2.227590358E-1,6.920268394E0
3.353806250E0,-3.651577989E0,-6.003522252E0,-2.627925825E-1,7.031739556E0
3.363764250E0,-3.902311274E0,-5.863981959E0,-1.402712683E-1,7.045139723E0
3.373722250E0,-4.066128914E0,-5.689179447E0,1.244660982E-1,6.993973043E0
3.383681250E0,-4.030557962E0,-5.377132258E0,3.803497569E-1,6.730795997E0
3.393639250E0,-3.866662554E0,-4.953657020E0,5.885901562E-1,6.311595326E0
3.403597250E0,-3.630081285E0,-4.566615198E0,7.130984274E-1,5.877071879E0
3.413556250E0,-3.218753638E0,-4.332171671E0,5.507023915E-1,5.425067695E0
3.423514250E0,-2.799684861E0,-4.115338204E0,1.543443469E-1,4.979765660E0
3.433472250E0,-2.522858084E0,-3.759591265E0,-3.014122725E-1,4.537641320E0
3.443429375E0,-2.350802009E0,-3.325810309E0,-5.786298629E-1,4.113647629E0
3.453388375E0,-2.263884026E0,-2.907112831E0,-6.255515027E-1,3.737350743E0
3.463346375E0,-2.149536169E0,-2.584890903E0,-4.837003168E-1,3.396488292E0
3.473304375E0,-2.031641391E0,-2.455772687E0,-1.808413701E-1,3.192348639E0
3.483262375E0,-1.812300930E0,-2.238362684E0,1.233796855E-1,2.882694002E0
3.493221375E0,-1.425967498E0,-1.810388598E0,3.466534225E-1,2.330463210E0
3.503179375E0,-7.327789128E-1,-1.423790579E0,3.415687568E-1,1.637319078E0
3.513137375E0,1.338006663E-1,-1.063950005E0,4.032473803E-2,1.073088214E0
3.523096375E0,9.073168382E-1,-6.175501728E-1,-4.749518589E-1,1.195897708E0
3.533054375E0,1.396142020E0,-2.800763673E-1,-9.747636668E-1,1.725635975E0
3.543012375E0,1.301281471E0,-4.187600434E-2,-1.363184774E0,1.885035754E0
3.552970375E0,8.975744998E-1,3.965698600E-2,-1.181745672E0,1.484498398E0
3.562929375E0,4.277548152E-1,-6.583847880E-2,-4.601080441E-1,6.316710374E-1
3.572887375E0,2.545292974E-2,-3.146380895E-1,3.384964836E-1,4.628443026E-1
3.582845375E0,9.305434406E-2,-1.851725489E-1,8.672122478E-1,8.916305662E-1
3.592804375E0,6.333206981E-1,6.868782699E-2,1.002724979E0,1.187969068E0
3.602762375E0,1.272404997E0,2.321812391E-1,7.252535462E-1,1.482874003E0
3.612720375E0,1.649762660E0,3.412288874E-1,7.220141888E-2,1.686228642E0
3.622678375E0,1.524572019E0,3.848619801E-1,-6.525960445E-1,1.702445354E0
3.632637375E0,1.093679003E0,4.469260812E-1,-1.145301147E0,1.645476041E0
3.642595375E0,6.374809921E-1,3.824365550E-1,-1.180712469E0,1.395249680E0
3.652553375E0,4.898738801E-2,1.339433384E-1,-5.617816957E-1,5.796026706E-1
3.662512375E0,-3.695557237E-2,1.518475127E-1,4.573236001E-1,4.832889991E-1
3.672470375E0,5.427169222E-1,5.938829827E-1,1.301463320E0,1.530047524E0
3.682428375E0,1.630544032E0,1.064727684E0,1.552433417E0,2.490455459E0
3.692386375E0,2.754825023E0,1.608278419E0,1.239470555E0,3.422266447E0
3.702345375E0,3.441529630E0,2.114042108E0,6.166893896E-1,4.085780958E0
3.712303375E0,3.748623058E0,2.417062950E0,-1.190096227E-1,4.461897738E0
3.722261375E0,3.541180803E0,2.502763835E0,-6.079387390E-1,4.378741578E0
3.732220375E0,3.106122231E0,2.379267717E0,-5.208109865E-1,3.947170413E0
3.742178375E0,2.684419869E0,2.323747235E0,2.165406682E-1,3.557077607E0
3.752136375E0,2.580635299E0,2.436142414E0,1.197430682E0,3.745438379E0
3.762094375E0,2.944936130E0,2.625277036E0,1.864863013E0,4.363764703E0
3.772053375E0,3.715470514E0,2.882493129E0,2.076655596E0,5.140621193E0
3.782011375E0,4.457550008E0,3.197434689E0,1.889997123E0,5.802191810E0
3.791969375E0,5.050843592E0,3.490408845E0,1.472906314E0,6.313749116E0
3.801928375E0,5.628349693E0,3.739299672E0,1.042521567E0,6.837216796E0
3.811886375E0,6.147005323E0,3.930790722E0,7.510555547E-1,7.334907947E0
3.821844375E0,6.539016693E0,4.163599368E0,7.491616416E-1,7.788166804E0
3.831802375E0,6.762096156E0,4.370239384E0,9.955995619E-1,8.112715648E0
3.841761375E0,6.811265393E0,4.432500536E0,1.290109781E0,8.228291469E0
3.851719375E0,6.768057978E0,4.337504332E0,1.457099974E0,8.169681325E0
3.861677375E0,6.640737196E0,4.143373849E0,1.461891037E0,7.962666812E0
3.871636375E0,6.507392612E0,3.936512808E0,1.300247099E0,7.715758823E0
3.881594375E0,6.384256098E0,3.690364324E0,1.040155345E0,7.447109366E0
3.891552375E0,6.229829963E0,3.458979476E0,7.312370020E-1,7.163101838E0
3.901511375E0,5.888923257E0,3.253876108E0,5.203982462E-1,6.748180583E0
3.911469375E0,5.377237508E0,3.062051182E0,5.444786882E-1,6.211867489E0
3.921427375E0,4.875042375E0,2.852701566E0,7.171743022E-1,5.693705592E0
3.931385375E0,4.500542246E0,2.614177267E0,9.410836315E-1,5.289087038E0
3.941344375E0,4.286175719E0,2.315427817E0,1.123416042E0,4.999457157E0
3.951302375E0,4.196748403E0,2.039113548E0,1.194044048E0,4.816266438E0
3.961260375E0,4.193138332E0,1.829976770E0,1.193473871E0,4.728171309E0
3.971219375E0,4.150170652E0,1.621749235E0,1.139602377E0,4.599204344E0
3.981177375E0,3.937348375E0,1.357974320E0,1.073677871E0,4.301115047E0
3.991135375E0,3.598861831E0,1.085741993E0,1.064148079E0,3.906795783E0
4.001093375E0,3.175409397E0,7.365047586E-1,1.081730145E0,3.434502032E0
4.011052375E0,2.729870861E0,3.364996594E-1,1.041447507E0,2.941095008E0
4.021010375E0,2.324965210E0,1.150732040E-2,1.002811372E0,2.532039947E0
4.030968375E0,2.076111805E0,-2.951680309E-1,9.220480210E-1,2.290750302E0
4.040927375E0,1.824783858E0,-6.341457403E-1,7.515367806E-1,2.072868660E0
4.050885375E0,1.469787117E0,-9.658337259E-1,6.759463155E-1,1.884147652E0
4.060843375E0,1.084389532E0,-1.288069103E0,6.897515917E-1,1.819554871E0
4.070801375E0,6.903789979E-1,-1.594264982E0,6.737068319E-1,1.863379964E0
4.080760375E0,2.764814991E-1,-1.903116083E0,5.731580750E-1,2.006689568E0
4.090718375E0,-9.417174697E-2,-2.308440979E0,3.925785506E-1,2.343477328E0
4.100676375E0,-4.747559041E-1,-2.787731983E0,2.283805490E-1,2.837076039E0
4.110635375E0,-9.483742324E-1,-3.224891460E0,1.561001927E-1,3.365071453E0
4.120593375E0,-1.397233403E0,-3.585875750E0,2.551011368E-1,3.856921398E0
4.130551375E0,-1.742653867E0,-3.908228656E0,5.194075817E-1,4.310554253E0
4.140509375E0,-2.039443038E0,-4.221869211E0,7.870328879E-1,4.754253706E0
4.150468375E0,-2.289970501E0,-4.536699089E0,9.751191044E-1,5.174597645E0
4.160426375E0,-2.514054224E0,-4.767438405E0,1.066962490E0,5.494301278E0
4.170384375E0,-2.745076253E0,-4.896258413E0,9.869959688E-1,5.699381643E0
4.180343375E0,-2.950305336E0,-5.033760951E0,7.942366576E-1,5.888451643E0
4.190301375E0,-3.125615386E0,-5.091694579E0,6.245282400E-1,6.007067567E0
4.200259375E0,-3.216021526E0,-5.031280562E0,4.277518916E-1,5.986614255E0
4.210217375E0,-3.239320634E0,-4.919491739E0,2.337144522E-1,5.894846867E0
4.220176375E0,-3.249465261E0,-4.863925649E0,1.083044307E-1,5.850515110E0
4.230134375E0,-3.205027884E0,-4.750628244E0,2.821402151E-2,5.730747637E0
4.240092375E0,-3.121893341E0,-4.649883642E0,-6.980398737E-2,5.601116720E0
4.250051375E0,-2.991272098E0,-4.595743103E0,-1.758034822E-1,5.486298415E0
4.260009375E0,-2.904284240E0,-4.457461131E0,-2.912381903E-1,5.328099695E0
4.269967375E0,-2.838772036E0,-4.302078976E0,-4.332318290E-1,5.172446230E0
4.279926375E0,-2.728226039E0,-4.244741764E0,-6.375639495E-1,5.086013936E0
4.289884375E0,-2.660238124E0,-4.231661543E0,-8.546477509E-1,5.070921915E0
4.299842375E0,-2.729790754E0,-4.236957951E0,-9.688578328E-1,5.132470724E0
4.309800375E0,-2.877946919E0,-4.300659272E0,-9.552431758E-1,5.262198986E0
4.319759375E0,-3.055869505E0,-4.418795832E0,-8.626911807E-1,5.441353794E0
4.329717375E0,-3.225211010E0,-4.511499344E0,-7.352662452E-1,5.594303249E0
4.339675375E0,-3.410105816E0,-4.430473307E0,-5.988857874E-1,5.622862224E0
4.349634375E0,-3.492956769E0,-4.140287688E0,-5.122206958E-1,5.441056807E0
4.359592375E0,-3.344115602E0,-3.832531187E0,-4.769035133E-1,5.108702518E0
4.369550375E0,-3.077368548E0,-3.542661318E0,-5.116910112E-1,4.720431557E0
4.379508375E0,-2.810961801E0,-3.214974582E0,-5.693223381E-1,4.308328648E0
4.389467375E0,-2.517142138E0,-2.893499928E0,-6.445315647E-1,3.888928814E0
4.399425375E0,-2.148271708E0,-2.721518113E0,-7.302821517E-1,3.543309780E0
4.409383375E0,-1.797547235E0,-2.744967787E0,-7.940798791E-1,3.375883154E0
4.419342375E0,-1.463166607E0,-2.839300917E0,-8.880317708E-1,3.315280779E0
4.429300375E0,-1.407720969E0,-2.861782876E0,-9.070294476E-1,3.315747574E0
4.439259000E0,-1.778238560E0,-2.786853147E0,-7.714067888E-1,3.394665119E0
4.449217000E0,-2.102725407E0,-2.652119265E0,-4.807369844E-1,3.418522894E0
4.459176000E0,-2.170156083E0,-2.465622321E0,-1.680536556E-1,3.288937957E0
4.469134000E0,-2.197098590E0,-2.212504542E0,1.136230946E-2,3.118100009E0
4.479092000E0,-2.024718872E0,-2.049773022E0,6.279909611E-2,2.881839635E0
4.489051000E0,-1.609915932E0,-1.950718265E0,-1.782348275E-2,2.529317840E0
4.499009000E0,-1.179420527E0,-1.773262287E0,-1.334427985E-1,2.133846034E0
4.508967000E0,-8.778167582E-1,-1.619765275E0,-1.735149733E-1,1.850488922E0
4.518926000E0,-5.936876857E-1,-1.553639697E0,-1.853836334E-1,1.673507834E0
4.528884000E0,-3.636763483E-1,-1.406631925E0,-1.803854334E-1,1.464039878E0
4.538842000E0,-2.318818617E-1,-1.217078058E0,-7.890700579E-2,1.241480774E0
4.548800000E0,-3.441261828E-1,-9.858803201E-1,1.143709534E-1,1.050458733E0
4.558759000E0,-5.485816795E-1,-7.078019464E-1,3.652123753E-1,9.671119550E-1
4.568717000E0,-4.604004049E-1,-5.257857245E-1,5.419830966E-1,8.844008356E-1
4.578675000E0,-1.679232627E-1,-3.485952097E-1,5.754987885E-1,6.934808563E-1
4.588634000E0,2.496731848E-1,-1.337860483E-1,5.845437733E-1,6.495589495E-1
4.598592000E0,9.259761804E-1,7.036831677E-2,4.516144518E-1,1.032637013E0
4.608550000E0,1.582960560E0,2.650420064E-1,1.628496337E-1,1.613236314E0
4.618508000E0,1.943741952E0,4.373951197E-1,-1.021508574E-1,1.994964176E0
4.628467000E0,1.907263513E0,6.799159902E-1,-2.078486359E-1,2.035470687E0
4.638425000E0,1.537192649E0,9.642514694E-1,-1.782243025E-1,1.823322802E0
4.648383000E0,1.098521082E0,1.004334717E0,1.459926226E-1,1.495577025E0
4.658342000E0,8.668579066E-1,9.458146137E-1,6.702710080E-1,1.447505143E0
4.668300000E0,8.961869556E-1,1.128453564E0,1.226026636E0,1.892009466E0
4.678258000E0,1.316378397E0,1.336942470E0,1.568254813E0,2.445340551E0
4.688217000E0,2.002939748E0,1.658604235E0,1.497536248E0,3.000891610E0
4.698175000E0,2.650520636E0,2.150728124E0,1.108215766E0,3.588737004E0
4.708133000E0,3.230987182E0,2.567686055E0,5.069768398E-1,4.158042252E0
4.718091000E0,3.626298721E0,2.814604617E0,7.115052804E-2,4.590980719E0
4.728050000E0,3.892708392E0,2.925549687E0,3.902884886E-2,4.869655310E0
4.738008000E0,4.171418849E0,2.984143465E0,3.926873088E-1,5.143933394E0
4.747966000E0,4.544903902E0,3.035935763E0,9.087333262E-1,5.540654626E0
4.757925000E0,5.063755413E0,3.171971235E0,1.402505984E0,6.137592642E0
4.767883000E0,5.800715670E0,3.365627509E0,1.738875104E0,6.928162631E0
4.777841000E0,6.541067896E0,3.655085149E0,1.900851456E0,7.730359172E0
4.787799000E0,7.140675303E0,3.955644897E0,1.856272284E0,8.371506264E0
4.797758000E0,7.560990121E0,4.116164415E0,1.684714830E0,8.772094685E0
4.807716000E0,7.705279523E0,4.110372164E0,1.385310930E0,8.842260923E0
4.817674000E0,7.449601833E0,3.983485830E0,1.290713214E0,8.545798232E0
4.827633000E0,6.973044401E0,3.844005178E0,1.405661872E0,8.085518495E0
4.837591000E0,6.555231022E0,3.640802740E0,1.537843444E0,7.654505915E0
4.847549000E0,6.412137961E0,3.505860697E0,1.600231481E0,7.481130479E0
4.857508000E0,6.410003142E0,3.368275128E0,1.504757413E0,7.395790187E0
4.867466000E0,6.291735604E0,3.146861537E0,1.258021285E0,7.146418124E0
4.877424000E0,5.921543704E0,2.888851392E0,9.356452824E-1,6.654740738E0
4.887382000E0,5.455320057E0,2.612893803E0,7.196064515E-1,6.091433689E0
4.897341000E0,4.955640981E0,2.371385670E0,6.875181015E-1,5.536653201E0
4.907299000E0,4.429629554E0,2.156534994E0,7.405020614E-1,4.982028148E0
4.917257000E0,4.021007997E0,1.938486475E0,8.345181262E-1,4.541217417E0
4.927216000E0,3.787787708E0,1.871154617E0,9.925110626E-1,4.339773442E0
4.937174000E0,3.773584821E0,1.809684008E0,1.041883782E0,4.312820473E0
4.947132000E0,3.828728743E0,1.612312998E0,9.327004784E-1,4.257774908E0
4.957091000E0,3.750984748E0,1.376714061E0,7.924374694E-1,4.073473374E0
4.967049000E0,3.550458580E0,1.084349771E0,7.398036846E-1,3.785350716E0
4.977007000E0,3.250112840E0,7.443704331E-1,8.143089795E-1,3.432261635E0
4.986965000E0,2.792947115E0,4.401362944E-1,1.015499537E0,3.004249133E0
4.996924000E0,2.321256906E0,1.711082411E-1,1.292826397E0,2.662501032E0
5.006882000E0,1.945323039E0,-1.376200676E-1,1.544406359E0,2.487651907E0
5.016840000E0,1.616382076E0,-4.654167312E-1,1.671916591E0,2.371625779E0
5.026799000E0,1.324710095E0,-7.717038274E-1,1.676783229E0,2.272000358E0
5.036757000E0,1.044883404E0,-1.116634587E0,1.562863095E0,2.186594426E0
5.046715000E0,6.855357492E-1,-1.412784950E0,1.348317643E0,2.069753861E0
5.056674000E0,3.193907064E-1,-1.694000940E0,1.038663136E0,2.012578127E0
5.066632000E0,3.861384273E-2,-1.963820706E0,7.268404806E-1,2.094368611E0
5.076590000E0,-1.990047222E-1,-2.211782995E0,5.061162758E-1,2.277661209E0
5.086548000E0,-3.426614553E-1,-2.440082268E0,4.467892563E-1,2.504204262E0
5.096507000E0,-4.331324995E-1,-2.699154852E0,5.689855385E-1,2.792272412E0
5.106465000E0,-4.667618832E-1,-2.944933206E0,6.936072457E-1,3.061305156E0
5.116423000E0,-5.484805226E-1,-3.143399400E0,7.589241529E-1,3.279901910E0
5.126382000E0,-6.763781324E-1,-3.442251177E0,7.536371005E-1,3.588112236E0
5.136340000E0,-8.745733076E-1,-3.809581450E0,6.606535077E-1,3.964120628E0
5.146298000E0,-1.185716809E0,-4.137440679E0,5.964920104E-1,4.345128587E0
5.156257000E0,-1.548218159E0,-4.391668260E0,6.215917683E-1,4.697883130E0
5.166215000E0,-1.941256301E0,-4.675490354E0,7.531985593E-1,5.118202237E0
5.176173000E0,-2.399202191E0,-4.964307724E0,9.528658441E-1,5.595397720E0
5.186131000E0,-2.798239137E0,-5.231659380E0,1.097066295E0,6.033569142E0
5.196090000E0,-3.042731397E0,-5.428709378E0,1.191751428E0,6.336353157E0
5.206048000E0,-3.174120086E0,-5.535144491E0,1.206526245E0,6.493733012E0
5.216006000E0,-3.228293078E0,-5.595970736E0,1.069457058E0,6.548320630E0
5.225965000E0,-3.256880115E0,-5.576763217E0,7.900291474E-1,6.506281743E0
5.235923000E0,-3.245474828E0,-5.467453029E0,3.613555884E-1,6.368416393E0
5.245881000E0,-3.163990955E0,-5.346432622E0,-1.072331111E-1,6.213427354E0
5.255840000E0,-3.026545719E0,-5.210103035E0,-5.119822025E-1,6.047088423E0
5.265798000E0,-2.988037711E0,-5.126967908E0,-7.062664676E-1,5.976033936E0
5.275756000E0,-3.027448529E0,-5.175162998E0,-6.252779992E-1,6.028161347E0
5.285714000E0,-3.105196324E0,-5.302396656E0,-3.804046476E-1,6.156489439E0
5.295673000E0,-3.170497736E0,-5.465745057E0,-1.638644180E-1,6.320860422E0
5.305631000E0,-3.218403097E0,-5.565756419E0,-3.907811165E-2,6.429408224E0
5.315589000E0,-3.225398706E0,-5.486594474E0,-1.217858076E-2,6.364437450E0
5.325548000E0,-3.232514475E0,-5.220904012E0,-2.287211493E-2,6.140644239E0
5.335506000E0,-3.336320972E0,-4.938858302E0,1.240808398E-2,5.960160477E0
5.345464000E0,-3.315939624E0,-4.701977071E0,7.270062491E-2,5.754070677E0
5.355423000E0,-3.230913215E0,-4.424406821E0,1.521328568E-1,5.480631380E0
5.365381000E0,-3.111372446E0,-4.160675760E0,1.649196942E-1,5.197986127E0
5.375339000E0,-2.861251949E0,-3.947647076E0,1.101418085E-1,4.876762386E0
5.385297000E0,-2.415384214E0,-3.771126652E0,-9.382427618E-2,4.479316926E0
5.395256000E0,-1.855926421E0,-3.545153401E0,-4.679877520E-1,4.028844506E0
5.405214000E0,-1.437906343E0,-3.253976095E0,-8.939107807E-1,3.668107354E0
5.415172000E0,-1.138571294E0,-2.934185439E0,-1.237166898E0,3.381770352E0
5.425131000E0,-1.111796016E0,-2.530008352E0,-1.513013828E0,3.150594148E0
5.435089000E0,-1.212438584E0,-2.252215907E0,-1.614762104E0,3.024886852E0
5.445046625E0,-1.442960676E0,-1.989416308E0,-1.381498107E0,2.819299519E0
5.455005625E0,-1.618698742E0,-1.955166242E0,-8.892632675E-1,2.689544536E0
5.464963625E0,-1.547153673E0,-1.985608016E0,-2.749689706E-1,2.532179223E0
5.474921625E0,-1.172142790E0,-1.940557559E0,1.602429450E-1,2.272742871E0
5.484880625E0,-6.247913647E-1,-1.808311082E0,1.722098565E-1,1.920939732E0
5.494838625E0,6.748680890E-2,-1.641242682E0,-1.368704545E-1,1.648322036E0
5.504796625E0,6.713670686E-1,-1.434414386E0,-6.450822262E-1,1.710090480E0
5.514754625E0,7.745055208E-1,-1.065749778E0,-1.071875467E0,1.698410553E0
5.524713625E0,5.077757156E-1,-6.939563245E-1,-1.094075956E0,1.391550845E0
5.534671625E0,9.604636431E-2,-6.550010043E-1,-6.547478199E-1,9.310993113E-1
5.544629625E0,-3.443901846E-1,-1.001539164E0,-1.340474919E-1,1.067545796E0
5.554588625E0,-7.118476349E-1,-1.433029765E0,2.515776229E-1,1.619750803E0
5.564546625E0,-8.558692342E-1,-1.650329840E0,5.255606067E-1,1.931919946E0
5.574504625E0,-5.862096816E-1,-1.569893203E0,6.470224786E-1,1.796341990E0
5.584463625E0,-3.854952335E-2,-1.150529727E0,6.429528165E-1,1.318557182E0
5.594421625E0,4.850259537E-1,-5.191052806E-1,4.080607716E-1,8.192887534E-1
5.604379625E0,7.796273893E-1,1.028232872E-1,9.466638487E-2,7.920563231E-1
5.614337625E0,1.062495217E0,4.907603180E-1,-2.124293447E-1,1.189482242E0
5.624296625E0,1.347342913E0,6.426551932E-1,-4.782484460E-1,1.567501259E0
5.634254625E0,1.476266416E0,5.459802532E-1,-6.187207854E-1,1.691233981E0
5.644212625E0,1.334684275E0,2.576546341E-1,-6.720380366E-1,1.516378300E0
5.654171625E0,1.000965552E0,1.625818312E-1,-2.485815096E-1,1.044106151E0
5.664129625E0,9.779468179E-1,5.534722906E-1,6.385276437E-1,1.292450814E0
5.674087625E0,1.454720596E0,1.352870870E0,1.460221657E0,2.465505808E0
5.684046625E0,2.339967996E0,2.316830564E0,1.791528404E0,3.748696854E0
5.694004625E0,3.349628357E0,3.179408893E0,1.636839144E0,4.899785039E0
5.703962625E0,4.317429671E0,3.773853793E0,1.203783828E0,5.859288943E0
5.713921625E0,5.175803853E0,4.164097551E0,7.413098542E-1,6.684174910E0
5.723879625E0,5.771588935E0,4.284347879E0,4.357402115E-1,7.201162761E0
5.733837625E0,6.049788346E0,4.258448807E0,5.508667713E-1,7.418745141E0
5.743795625E0,6.158184029E0,4.329041072E0,1.228518720E0,7.627128253E0
5.753754625E0,6.402079580E0,4.478301192E0,2.023744726E0,8.070771167E0
5.763712625E0,6.901609553E0,4.797943329E0,2.594020745E0,8.796670860E0
5.773670625E0,7.547132220E0,5.159117069E0,2.844214332E0,9.574197034E0
5.783629625E0,8.067909220E0,5.467657097E0,2.749600536E0,1.012653625E1
5.793587625E0,8.374508557E0,5.480270126E0,2.311745825E0,1.027180232E1
5.803545625E0,8.332298677E0,5.219001328E0,1.735268249E0,9.983803483E0
5.813504625E0,7.992442131E0,4.844854955E0,1.309993238E0,9.437575591E0
5.823462625E0,7.504710671E0,4.505752115E0,1.202994746E0,8.835704880E0
5.833420625E0,7.021285685E0,4.275079458E0,1.364222655E0,8.332818280E0
5.843379625E0,6.662235653E0,4.079340990E0,1.480653582E0,7.951021434E0
5.853337625E0,6.309647965E0,3.893718790E0,1.358568543E0,7.537798879E0
5.863295625E0,5.921854191E0,3.667350268E0,1.054321395E0,7.044814309E0
5.873253625E0,5.507760810E0,3.286975442E0,6.652179904E-1,6.448422417E0
5.883212625E0,5.062726888E0,2.808994213E0,3.750784189E-1,5.801925185E0
5.893170625E0,4.573630688E0,2.352337196E0,3.446348906E-1,5.154644620E0
5.903128625E0,4.151065861E0,1.944194527E0,4.645156753E-1,4.607278476E0
5.913087625E0,3.704845539E0,1.651701012E0,6.542231785E-1,4.108771674E0
5.923045625E0,3.424480319E0,1.454330002E0,8.820618367E-1,3.823633651E0
5.933003625E0,3.283514475E0,1.206615050E0,9.599841714E-1,3.627527642E0
5.942962625E0,3.143371918E0,9.062254554E-1,9.277004512E-1,3.400391113E0
5.952920625E0,2.889519144E0,5.931965196E-1,8.316950905E-1,3.064787059E0
5.962878625E0,2.517408772E0,2.504485255E-1,7.786082196E-1,2.646942037E0
5.972837625E0,2.131779052E0,-4.611991346E-2,9.172901416E-1,2.321213083E0
5.982795625E0,1.770080232E0,-3.224166405E-1,1.129960465E0,2.124605180E0
5.992753625E0,1.350113908E0,-5.545604575E-1,1.233570129E0,1.911031169E0
6.002712625E0,8.761900628E-1,-7.573413116E-1,1.159318092E0,1.638686464E0
6.012670625E0,4.822163665E-1,-9.171153098E-1,9.401165020E-1,1.399089759E0
6.022628625E0,3.307734811E-1,-1.056166776E0,6.505512732E-1,1.283789824E0
6.032586625E0,2.456523469E-1,-1.168240943E0,3.274002224E-1,1.237870301E0
6.042545625E0,9.821743548E-2,-1.278187308E0,1.469873071E-1,1.290354497E0
6.052503625E0,-4.687186539E-2,-1.480845371E0,1.735482842E-1,1.491716793E0
6.062461625E0,-2.040678263E-1,-1.872153322E0,2.342681104E-1,1.897757436E0
6.072420625E0,-4.735581020E-1,-2.271527506E0,3.613527014E-1,2.348333507E0
6.082378625E0,-8.162698433E-1,-2.685843081E0,5.505679786E-1,2.860624864E0
6.092336625E0,-1.215188822E0,-3.150278649E0,6.907380170E-1,3.446455926E0
6.102295625E0,-1.570014533E0,-3.498013734E0,8.151498091E-1,3.919887106E0
6.112253625E0,-1.723381444E0,-3.732471294E0,8.955092633E-1,4.207531628E0
6.122211625E0,-1.719061521E0,-3.971703690E0,8.444671637E-1,4.409390832E0
6.132170625E0,-1.568407133E0,-4.228519834E0,6.494759703E-1,4.556544739E0
6.142128625E0,-1.387152511E0,-4.451592280E0,3.675793648E-1,4.677176553E0
6.152086625E0,-1.389463623E0,-4.702954141E0,1.360389805E-1,4.905802015E0
6.162044625E0,-1.508368215E0,-5.017675846E0,7.721832991E-2,5.240058037E0
6.172003625E0,-1.786393379E0,-5.257129852E0,2.280881882E-1,5.557035163E0
6.181961625E0,-2.128221606E0,-5.474838063E0,4.573481584E-1,5.891718455E0
6.191919625E0,-2.531405252E0,-5.701227050E0,7.158500540E-1,6.278888733E0
6.201878625E0,-2.902165794E0,-5.841080754E0,9.534060538E-1,6.591644239E0
6.211836625E0,-3.112291043E0,-5.925101150E0,9.993406105E-1,6.766968363E0
6.221794625E0,-3.141080979E0,-5.916161342E0,7.926041150E-1,6.745040847E0
6.231753625E0,-2.981833230E0,-5.840862068E0,3.135067264E-1,6.565461566E0
6.241711625E0,-2.804977761E0,-5.741509103E0,-3.016999189E-1,6.397175147E0
6.251669625E0,-2.751276932E0,-5.717496927E0,-8.451448560E-1,6.401059733E0
6.261628625E0,-2.867374861E0,-5.733455148E0,-1.148643415E0,6.512582301E0
6.271586625E0,-3.073316135E0,-5.792192768E0,-1.109883392E0,6.650309036E0
6.281544625E0,-3.416572252E0,-5.908774554E0,-6.942375024E-1,6.860652184E0
6.291503625E0,-3.873752888E0,-6.003842679E0,-1.245924711E-2,7.145085275E0
6.301461625E0,-4.188724269E0,-5.941656371E0,6.998976803E-1,7.303324462E0
6.311419625E0,-4.230951398E0,-5.611473459E0,1.155893962E0,7.122195937E0
6.321377625E0,-3.971551370E0,-5.058756629E0,1.142478111E0,6.532189154E0
6.331336625E0,-3.555027302E0,-4.508580998E0,5.866721964E-1,5.771456142E0
6.341294625E0,-3.160361880E0,-4.170921836E0,-1.994392435E-1,5.236816990E0
6.351252625E0,-2.772131027E0,-3.880870119E0,-8.559680521E-1,4.845466398E0
6.361211625E0,-2.407840136E0,-3.515622624E0,-1.299830192E0,4.454980929E0
6.371169625E0,-2.170418622E0,-3.306376503E0,-1.593848076E0,4.264175684E0
6.381127625E0,-2.049754603E0,-3.328035759E0,-1.584348689E0,4.217520210E0
6.391086625E0,-2.137096510E0,-3.400457618E0,-9.610026833E-1,4.129627061E0
6.401044625E0,-2.359146571E0,-3.447530628E0,1.287627419E-1,4.179428169E0
6.411002625E0,-2.448310178E0,-3.253111877E0,1.120938138E0,4.222968378E0
6.420961625E0,-2.130386830E0,-2.832103579E0,1.613658442E0,3.894002093E0
6.430919625E0,-1.529977185E0,-2.359550321E0,1.448596222E0,3.163342998E0
6.440877792E0,-9.442177391E-1,-1.856561136E0,7.121312249E-1,2.201249026E0
6.450836792E0,-4.504411349E-1,-1.507463651E0,-1.593576034E-1,1.581372417E0
6.460794792E0,-8.221360624E-2,-1.267826042E0,-8.748136282E-1,1.542543625E0
6.470752792E0,-1.103182483E-1,-1.216795052E0,-1.156408517E0,1.682272562E0
6.480710792E0,-5.439913228E-1,-1.545317355E0,-8.355180732E-1,1.839027661E0
6.490669792E0,-1.078879993E0,-1.800155970E0,2.080392551E-1,2.108986460E0
6.500627792E0,-9.968043807E-1,-1.546159354E0,1.200407646E0,2.196635208E0
6.510585792E0,-3.078208208E-1,-1.005084915E0,1.325369661E0,1.691612864E0
6.520544792E0,3.339146054E-1,-4.819403780E-1,6.440848374E-1,8.709826459E-1
6.530502792E0,8.222559303E-1,-2.420571864E-2,-4.191213648E-1,9.232299010E-1
6.540460792E0,1.190069184E0,2.392171937E-1,-1.465100573E0,1.902632181E0
6.550419792E0,1.193582191E0,2.162563473E-1,-2.137110543E0,2.457365811E0
6.560377792E0,9.207312280E-1,4.953585684E-2,-2.147209854E0,2.336816200E0
6.570335792E0,4.657944614E-1,-8.878938496E-2,-1.348543346E0,1.429481441E0
6.580294792E0,1.949900240E-1,1.127758330E-1,-6.870946169E-2,2.355005055E-1
6.590252792E0,3.067209595E-1,6.100932187E-1,1.133054738E0,1.322915161E0
6.600210792E0,1.118247249E0,1.218672593E0,1.609928504E0,2.308139854E0
6.610169792E0,2.237131260E0,1.719679572E0,1.202590411E0,3.067291607E0
6.620127792E0,3.191365864E0,2.058414622E0,3.863208604E-1,3.817215038E0
6.630085792E0,3.819158605E0,2.202755479E0,-3.893684292E-1,4.426026652E0
6.640044792E0,4.006283539E0,2.026943153E0,-9.244798779E-1,4.584045090E0
6.650002792E0,3.862081261E0,1.763733664E0,-1.009512427E0,4.364120008E0
6.659960792E0,3.678688604E0,1.709624700E0,-4.358531724E-1,4.079893926E0
6.669918792E0,3.816143780E0,2.138105155E0,5.120372029E-1,4.404160431E0
6.679877792E0,4.422193065E0,2.838115686E0,1.139473811E0,5.376717653E0
6.689835792E0,5.407729568E0,3.477427441E0,1.195403599E0,6.539497722E0
6.699793792E0,6.320447772E0,4.048442549E0,8.391526294E-1,7.552623666E0
6.709752792E0,7.012145317E0,4.382706233E0,3.038388304E-1,8.274697209E0
6.719710792E0,7.421422931E0,4.391371222E0,-1.157860527E-1,8.624097978E0
6.729668792E0,7.501583580E0,4.294009234E0,-1.897742345E-1,8.645709095E0
6.739627792E0,7.323129482E0,4.245037048E0,2.233612259E-1,8.467494032E0
6.749585792E0,7.143889518E0,4.321132713E0,8.458066877E-1,8.391825446E0
6.759543792E0,7.142078050E0,4.482733966E0,1.232369696E0,8.521908105E0
6.769502792E0,7.229757049E0,4.679064172E0,1.224338545E0,8.698392575E0
6.779460792E0,7.269460228E0,4.742188958E0,8.194375724E-1,8.718078117E0
6.789418792E0,7.120680165E0,4.550749363E0,1.797082528E-1,8.452555876E0
6.799377792E0,6.715717211E0,4.177224550E0,-3.942415718E-1,7.918679752E0
6.809335792E0,6.197404813E0,3.683836493E0,-7.085843769E-1,7.244347420E0
6.819293792E0,5.661716829E0,3.215687943E0,-6.935815910E-1,6.548033431E0
6.829252792E0,5.163521776E0,2.883160297E0,-4.236641032E-1,5.929086076E0
6.839210792E0,4.750194381E0,2.679156790E0,-1.264132941E-1,5.455108439E0
6.849168792E0,4.443958740E0,2.564013419E0,2.149787307E-2,5.130633124E0
6.859126792E0,4.324991291E0,2.481117443E0,4.140004098E-2,4.986301976E0
6.869085792E0,4.277100840E0,2.283147678E0,-3.917751431E-2,4.848493559E0
6.879043792E0,4.173131499E0,1.979668999E0,-1.010444912E-1,4.619991974E0
6.889001792E0,3.978920909E0,1.639523601E0,-5.431248385E-2,4.303812157E0
6.898960792E0,3.702048815E0,1.279226943E0,5.326583225E-2,3.917195968E0
6.908918792E0,3.314766673E0,9.440721434E-1,1.707234577E-1,3.450811036E0
6.918876792E0,2.862640663E0,7.065290076E-1,3.386041089E-1,2.967919734E0
6.928835792E0,2.563049798E0,5.745760614E-1,5.293297219E-1,2.679468580E0
6.938793792E0,2.284113053E0,4.507372963E-1,5.412498923E-1,2.390248522E0
6.948751792E0,1.946240467E0,3.017864943E-1,3.180323982E-1,1.995011692E0
6.958710792E0,1.653171002E0,8.006884754E-2,1.205228273E-1,1.659491228E0
6.968668792E0,1.335863659E0,-2.798875022E-1,-4.049197753E-2,1.365470003E0
6.978626792E0,9.096723890E-1,-7.519291288E-1,-6.795927306E-2,1.182167388E0
6.988585792E0,3.653112298E-1,-1.199328250E0,6.532742302E-2,1.255431487E0
6.998543792E0,-1.361810678E-1,-1.596143693E0,2.785788953E-1,1.625984678E0
7.008501792E0,-6.225863796E-1,-1.930388666E0,4.542315924E-1,2.078542889E0
7.018460792E0,-1.054840627E0,-2.217096360E0,5.169277775E-1,2.509067426E0
7.028418792E0,-1.382713889E0,-2.411492307E0,4.984020442E-1,2.824110027E0
7.038376792E0,-1.567276574E0,-2.550069564E0,4.269157398E-1,3.023486016E0
7.048335792E0,-1.654171753E0,-2.770604319E0,3.863185215E-1,3.249888380E0
7.058293792E0,-1.679612989E0,-3.081103165E0,4.200815141E-1,3.534227636E0
7.068251792E0,-1.819142464E0,-3.429739890E0,5.703397536E-1,3.923988080E0
7.078209792E0,-2.024189699E0,-3.758086776E0,7.907587337E-1,4.341181813E0
7.088168792E0,-2.252922251E0,-4.023167374E0,1.022370454E0,4.723004947E0
7.098126792E0,-2.473601139E0,-4.123959339E0,1.180476826E0,4.951693525E0
7.108084792E0,-2.601646099E0,-4.078165115E0,1.183003993E0,4.979908792E0
7.118043792E0,-2.469914762E0,-3.896423712E0,1.059754043E0,4.733463353E0
7.128001792E0,-1.998274255E0,-3.647391967E0,7.440160918E-1,4.224941195E0
7.137959792E0,-1.554167409E0,-3.431681750E0,2.690093605E-1,3.776803146E0
7.147918792E0,-1.178905095E0,-3.336530010E0,-1.547442051E-1,3.542060911E0
7.157876792E0,-9.221097091E-1,-3.419398504E0,-4.032848024E-1,3.564436993E0
7.167834792E0,-9.256677398E-1,-3.602039208E0,-4.381517494E-1,3.744799618E0
7.177793792E0,-1.141921748E0,-3.828469711E0,-2.847839606E-1,4.005279954E0
7.187751792E0,-1.475098143E0,-4.073225972E0,-1.523784399E-3,4.332099569E0
7.197709792E0,-1.764022809E0,-4.251030445E0,3.054258195E-1,4.612626285E0
7.207668792E0,-2.056790265E0,-4.405899214E0,5.092784500E-1,4.888936348E0
7.217626792E0,-2.457812780E0,-4.591335472E0,5.764559412E-1,5.239609387E0
7.227584792E0,-2.851257011E0,-4.829177985E0,6.151493061E-1,5.641722718E0
7.237543792E0,-3.137790459E0,-5.106076391E0,5.843613768E-1,6.021563193E0
7.247501792E0,-3.391009980E0,-5.361603223E0,4.860884293E-1,6.362548213E0
7.257459792E0,-3.591564506E0,-5.580609516E0,3.309957484E-1,6.644704384E0
7.267418792E0,-3.684459806E0,-5.757826343E0,1.453313756E-1,6.837318880E0
7.277376792E0,-3.753128337E0,-5.846832075E0,-5.497588702E-3,6.947765674E0
7.287334792E0,-3.891311784E0,-5.802547603E0,-1.678150892E-2,6.986569094E0
7.297293792E0,-4.003858699E0,-5.579401481E0,8.973140795E-2,6.867944168E0
7.307251792E0,-4.010699941E0,-5.208306770E0,2.684421257E-1,6.579075513E0
7.317209792E0,-3.958614990E0,-4.783934569E0,4.721485941E-1,6.227325823E0
7.327168792E0,-3.845088960E0,-4.430892552E0,6.550308251E-1,5.903099465E0
7.337126792E0,-3.657835094E0,-4.186240371E0,7.027557993E-1,5.603412508E0
7.347084792E0,-3.281804749E0,-3.938616051E0,5.189100202E-1,5.152883311E0
7.357042792E0,-2.672179600E0,-3.668747753E0,1.534098157E-1,4.541342143E0
7.367001792E0,-1.985003122E0,-3.372638905E0,-3.079775262E-1,3.925529357E0
7.376959792E0,-1.385675504E0,-3.095683197E0,-7.481055614E-1,3.473184848E0
7.386917792E0,-1.124056750E0,-2.686134272E0,-1.037777867E0,3.091246320E0
7.396876792E0,-1.043847862E0,-2.284444005E0,-9.530598986E-1,2.686377848E0
7.406834792E0,-1.077164712E0,-2.038934623E0,-4.488661508E-1,2.349259252E0
7.416792792E0,-1.191395917E0,-1.854469587E0,2.427858225E-1,2.217527144E0
7.426751792E0,-1.144298349E0,-1.732708923E0,7.597345769E-1,2.211084700E0
7.436709792E0,-6.689091915E-1,-1.649188464E0,7.880245757E-1,1.946341395E0
7.446668000E0,1.033413506E-1,-1.449492016E0,3.783943748E-1,1.501628730E0
7.456627000E0,9.215761507E-1,-1.218754454E0,-3.702386785E-1,1.572177376E0
7.466585000E0,1.566284301E0,-1.039481746E0,-1.278383775E0,2.273331012E0
7.476543000E0,1.615978618E0,-8.851976985E-1,-1.945402561E0,2.679468788E0
7.486502000E0,1.079412966E0,-6.880395269E-1,-2.095025793E0,2.455130102E0
7.496460000E0,4.221420729E-1,-6.014007479E-1,-1.641515747E0,1.798460658E0
7.506418000E0,-5.141982973E-2,-5.901916355E-1,-5.933368528E-1,8.384621556E-1
7.516377000E0,-2.935372424E-1,-4.811205983E-1,6.191102099E-1,8.372207563E-1
7.526335000E0,-3.241637886E-2,-2.810195231E-1,1.354410442E0,1.383636672E0
7.536293000E0,7.515057904E-1,7.372871161E-2,1.529156821E0,1.705437615E0
7.546252000E0,1.790585833E0,5.392606330E-1,1.064302007E0,2.151682694E0
7.556210000E0,2.730453828E0,1.115861000E0,9.776544571E-3,2.949681247E0
7.566168000E0,3.346552137E0,1.919270185E0,-1.142079331E0,4.023351147E0
7.576127000E0,3.769744370E0,2.669592499E0,-1.879479883E0,4.986997228E0
7.586085000E0,3.982550860E0,2.984666206E0,-1.837286959E0,5.305145341E0
7.596043000E0,3.987505791E0,3.017660290E0,-8.706305301E-1,5.075871706E0
7.606002000E0,3.781323611E0,2.921603401E0,5.361539342E-1,4.808496202E0
7.615960000E0,3.758610687E0,2.794672628E0,1.785218089E0,5.012419876E0
7.625918000E0,4.091822457E0,2.867469293E0,2.624661325E0,5.643955903E0
7.635877000E0,4.549764107E0,3.184525791E0,2.817974952E0,6.227562989E0
7.645835000E0,4.934181114E0,3.451576316E0,2.349730507E0,6.463803508E0
7.655793000E0,5.214254558E0,3.753187979E0,1.536686280E0,6.605775906E0
7.665752000E0,5.438501126E0,4.078973785E0,8.650780141E-1,6.853005297E0
7.675710000E0,5.601120964E0,4.254741672E0,4.821543130E-1,7.050379815E0
7.685668000E0,5.628181293E0,4.269584244E0,4.555874886E-1,7.079077217E0
7.695627000E0,5.631036488E0,4.266533752E0,7.776211365E-1,7.107501447E0
7.705585000E0,5.725739163E0,4.299692727E0,1.159842587E0,7.253735681E0
7.715543000E0,5.911141507E0,4.394208875E0,1.317249048E0,7.482366645E0
7.725501000E0,6.172023219E0,4.529702311E0,1.223759598E0,7.753042061E0
7.735460000E0,6.411877760E0,4.642568775E0,9.748606575E-1,7.975962296E0
7.745418000E0,6.547992169E0,4.647916054E0,6.840224167E-1,8.058983296E0
7.755376000E0,6.459527889E0,4.425164620E0,4.451963286E-1,7.842562224E0
7.765335000E0,6.119491249E0,4.000279618E0,3.460287206E-1,7.319162934E0
7.775293000E0,5.599814111E0,3.521580352E0,4.427587706E-1,6.629893029E0
7.785251000E0,5.160745518E0,3.087194794E0,6.203194872E-1,6.045565504E0
7.795210000E0,4.846713785E0,2.764888081E0,7.185209890E-1,5.625967741E0
7.805168000E0,4.607231712E0,2.546565328E0,6.629690051E-1,5.305761672E0
7.815126000E0,4.395598758E0,2.297338285E0,5.233766717E-1,4.987281302E0
7.825085000E0,4.120109532E0,1.971887525E0,4.086548853E-1,4.585917769E0
7.835043000E0,3.800674387E0,1.546157016E0,3.668765295E-1,4.119505516E0
7.845001000E0,3.392134691E0,1.099558963E0,4.602272908E-1,3.595471713E0
7.854960000E0,2.987584552E0,7.313901991E-1,6.642325884E-1,3.146712254E0
7.864918000E0,2.662567070E0,2.998335242E-1,7.962983859E-1,2.795219967E0
7.874876000E0,2.308795905E0,-1.146943045E-1,7.837011445E-1,2.440877055E0
7.884835000E0,1.911775224E0,-3.793901557E-1,7.367222750E-1,2.083646109E0
7.894793000E0,1.580312941E0,-6.647430503E-1,6.370447898E-1,1.828961011E0
7.904751000E0,1.245630012E0,-9.821872187E-1,4.824268663E-1,1.658017352E0
7.914710000E0,8.912934208E-1,-1.224336791E0,3.553867507E-1,1.555539868E0
7.924668000E0,5.901922202E-1,-1.435444080E0,3.370919824E-1,1.588224659E0
7.934626000E0,3.163314432E-1,-1.629640637E0,4.039005142E-1,1.708487581E0
7.944585000E0,4.405058384E-2,-1.786037868E0,4.878448963E-1,1.851989299E0
7.954543000E0,-1.949277511E-1,-1.866731783E0,5.155174291E-1,1.946392200E0
7.964501000E0,-3.027346203E-1,-1.854488883E0,3.908933830E-1,1.919264157E0
7.974460000E0,-4.064382058E-1,-1.911194011E0,4.826993465E-2,1.954529240E0
7.984418000E0,-5.768649539E-1,-1.982905433E0,-3.212355030E-1,2.089947220E0
7.994376000E0,-8.341602767E-1,-1.946031722E0,-5.369100523E-1,2.184292845E0
8.004335000E0,-1.128308261E0,-2.019512511E0,-5.413141386E-1,2.375822239E0
8.014293000E0,-1.391259010E0,-2.162201530E0,-3.416609601E-1,2.593732697E0
8.024251000E0,-1.477889603E0,-2.284473826E0,2.348205261E-3,2.720842490E0
8.034210000E0,-1.479736446E0,-2.480945535E0,2.138899426E-1,2.896629007E0
8.044168000E0,-1.550294798E0,-2.705806645E0,2.438569959E-1,3.127981744E0
8.054126000E0,-1.613457006E0,-2.884879963E0,1.820729764E-1,3.310426933E0
8.064085000E0,-1.723610363E0,-3.041608146E0,1.704339109E-2,3.496069690E0
8.074043000E0,-1.889758118E0,-3.111237375E0,-1.598020284E-1,3.643695986E0
8.084001000E0,-2.052148746E0,-3.132563925E0,-1.883177662E-1,3.749631288E0
8.093960000E0,-2.135297614E0,-3.230511804E0,-4.228245892E-2,3.872659321E0
8.103918000E0,-2.191128291E0,-3.356460829E0,2.528500501E-1,4.016317421E0
8.113876000E0,-2.320774657E0,-3.506068273E0,5.259161540E-1,4.237345578E0
8.123835000E0,-2.509515907E0,-3.744838740E0,6.899259118E-1,4.560425971E0
8.133793000E0,-2.697814378E0,-3.994324813E0,7.562250781E-1,4.879007020E0
8.143751000E0,-2.905005787E0,-4.215668238E0,7.280648875E-1,5.171169674E0
8.153710000E0,-3.046313986E0,-4.403214757E0,6.539023856E-1,5.394063165E0
8.163668000E0,-3.093301626E0,-4.545707894E0,5.427666966E-1,5.525085600E0
8.173626000E0,-2.989526412E0,-4.616705956E0,2.975227777E-1,5.508154124E0
8.183585000E0,-2.914113995E0,-4.619624301E0,3.626209259E-2,5.462078725E0
8.193543000E0,-2.900894317E0,-4.689757560E0,-1.122980424E-1,5.515580174E0
8.203501000E0,-2.912257504E0,-4.844991195E0,-6.948122106E-2,5.653318591E0
8.213460000E0,-2.982186402E0,-5.034059159E0,7.912232950E-2,5.851619237E0
8.223418000E0,-3.102018363E0,-5.216350200E0,2.280437493E-1,6.073288342E0
8.233376000E0,-3.211749843E0,-5.322618082E0,3.135137431E-1,6.224459106E0
8.243335000E0,-3.421024615E0,-5.238535121E0,3.134831183E-1,6.264497689E0
8.253293000E0,-3.477174257E0,-5.029962600E0,1.810263614E-1,6.117518706E0
8.263251000E0,-3.194040673E0,-4.708752240E0,-9.873725295E-2,5.690693501E0
8.273210000E0,-2.845860323E0,-4.211348315E0,-3.825505026E-1,5.097128653E0
8.283168000E0,-2.497032687E0,-3.747230251E0,-5.664175875E-1,4.538472835E0
8.293126000E0,-2.206759945E0,-3.471403055E0,-6.812893550E-1,4.169482439E0
8.303085000E0,-2.007229266E0,-3.307332523E0,-7.526373728E-1,3.941304449E0
8.313043000E0,-1.895398927E0,-3.360931610E0,-7.854613025E-1,3.937683055E0
8.323001000E0,-1.931205814E0,-3.540153447E0,-7.604092725E-1,4.103713512E0
8.332960000E0,-1.938913029E0,-3.654978145E0,-6.305790849E-1,4.185197601E0
8.342918000E0,-1.822944032E0,-3.610655665E0,-4.523357789E-1,4.069959083E0
8.352876000E0,-1.707296631E0,-3.343319212E0,-3.066676768E-1,3.766522295E0
8.362835000E0,-1.500978211E0,-2.903698057E0,-1.776080060E-1,3.273521437E0
8.372793000E0,-1.176154857E0,-2.418794895E0,-6.579045855E-2,2.690397252E0
8.382751000E0,-7.344360137E-1,-2.008789303E0,-5.882298946E-4,2.138838719E0
8.392710000E0,-3.775371730E-1,-1.682588929E0,2.370220028E-2,1.724587375E0
8.402668000E0,-1.151863477E-1,-1.562364913E0,-1.693353653E-3,1.566606167E0
8.412626000E0,2.210890710E-2,-1.768983879E0,-4.089783825E-2,1.769594700E0
8.422585000E0,-7.839625150E-2,-2.003509852E0,-6.927784760E-2,2.006239547E0
8.432543000E0,-1.704094988E-1,-1.824898463E0,1.289918796E-1,1.837371140E0
8.442500250E0,-7.535336047E-2,-1.359895715E0,5.135118707E-1,1.455571684E0
8.452459250E0,1.666930085E-1,-8.065883160E-1,9.628972542E-1,1.267099993E0
8.462417250E0,4.710224569E-1,-1.331118643E-1,1.331149049E0,1.418287246E0
8.472375250E0,8.485280550E-1,3.251624930E-1,1.318038422E0,1.600923417E0
8.482334250E0,1.098771343E0,3.976901865E-1,8.204380310E-1,1.427786578E0
8.492292250E0,1.131139190E0,2.432675600E-1,1.641804600E-1,1.168593255E0
8.502250250E0,1.081209816E0,-1.049575210E-2,-3.947455287E-1,1.151064229E0
8.512209250E0,1.070473743E0,-8.186628163E-2,-6.047354150E-1,1.232201706E0
8.522167250E0,1.163411143E0,3.038739502E-1,-4.279764247E-1,1.276334080E0
8.532125250E0,1.537842860E0,1.083777328E0,-1.629969835E-2,1.881435526E0
8.542083250E0,2.152022697E0,1.956316974E0,3.367113286E-1,2.927755508E0
8.552042250E0,2.758245644E0,2.581883680E0,4.529972452E-1,3.805160821E0
8.562000250E0,3.305802891E0,2.899091036E0,4.235325408E-1,4.417288920E0
8.571958250E0,3.698954469E0,2.947152810E0,2.912439644E-1,4.738438234E0
8.581917250E0,3.777090227E0,2.803589047E0,2.002332222E-1,4.708143527E0
8.591875250E0,3.738527840E0,2.747280360E0,3.322610128E-1,4.651294139E0
8.601833250E0,3.939952725E0,2.987109173E0,6.214923656E-1,4.983201927E0
8.611792250E0,4.366182001E0,3.460214993E0,8.411160513E-1,5.634191093E0
8.621750250E0,4.942020476E0,4.059149385E0,9.134257168E-1,6.460232709E0
8.631708250E0,5.643747751E0,4.584166201E0,8.168588772E-1,7.316674576E0
8.641667250E0,6.345170969E0,4.891458433E0,6.091570795E-1,8.034838678E0
8.651625250E0,6.830794508E0,5.009201476E0,4.515056205E-1,8.482671181E0
8.661583250E0,7.120998838E0,4.988076071E0,4.411502016E-1,8.705408712E0
8.671542250E0,7.184044687E0,4.786686269E0,5.992612517E-1,8.653437325E0
8.681500250E0,7.081093930E0,4.641892837E0,9.316403782E-1,8.518040511E0
8.691458250E0,7.054168087E0,4.552542120E0,1.213556864E0,8.482903242E0
8.701417250E0,7.065840883E0,4.460422745E0,1.230061215E0,8.445977093E0
8.711375250E0,6.931015785E0,4.349780561E0,9.433136865E-1,8.237075419E0
8.721333250E0,6.578162048E0,4.184494978E0,4.639875986E-1,7.810089541E0
8.731292250E0,6.059382457E0,3.782960832E0,-6.843033023E-3,7.143315424E0
8.741250250E0,5.452301139E0,3.310052063E0,-2.079263673E-1,6.381791735E0
8.751209250E0,4.879721317E0,2.881910162E0,-9.780871511E-2,5.668037832E0
8.761167250E0,4.288756095E0,2.527890490E0,1.873383576E-1,4.981842514E0
8.771125250E0,3.750847338E0,2.262473093E0,4.550595216E-1,4.403943621E0
8.781084250E0,3.379786541E0,2.055685142E0,5.900337241E-1,3.999617265E0
8.791042250E0,3.174629379E0,1.825715320E0,4.987370896E-1,3.695977111E0
8.801000250E0,3.062364593E0,1.525537979E0,2.277314897E-1,3.428878046E0
8.810959250E0,2.932804327E0,1.201223332E0,1.254986982E-2,3.169295855E0
8.820917250E0,2.753755567E0,9.052419537E-1,-1.715514600E-2,2.898780264E0
8.830875250E0,2.493824612E0,6.231330943E-1,9.549555659E-2,2.572270485E0
8.840834250E0,2.222750618E0,2.980711734E-1,2.295932615E-1,2.254369047E0
8.850792250E0,1.987974384E0,2.746437192E-2,3.866412878E-1,2.025410558E0
8.860750250E0,1.741929982E0,-1.405161935E-1,4.705043936E-1,1.809817462E0
8.870709250E0,1.410436124E0,-3.552791619E-1,3.517030048E-1,1.496411823E0
8.880667250E0,1.025059589E0,-6.014808547E-1,4.376056194E-3,1.188505586E0
8.890625250E0,6.971459806E-1,-7.805851632E-1,-3.734592883E-1,1.111214451E0
8.900584250E0,4.495994282E-1,-9.987792778E-1,-6.154521918E-1,1.256376175E0
8.910542250E0,1.909969604E-1,-1.204902400E0,-6.254310501E-1,1.370924371E0
8.920500250E0,-4.477037609E-2,-1.421411347E0,-4.430423240E-1,1.489530498E0
8.930459250E0,-2.585805407E-1,-1.646672407E0,-1.746422617E-1,1.675975486E0
8.940417250E0,-3.719682848E-1,-1.803933272E0,6.537888765E-2,1.843043693E0
8.950375250E0,-4.593555075E-1,-1.921486280E0,1.477182090E-1,1.981145546E0
8.960334250E0,-5.677006128E-1,-1.936835221E0,1.636414563E-1,2.024942761E0
8.970292250E0,-5.647840217E-1,-1.955275000E0,1.305425978E-1,2.039392725E0
8.980250250E0,-5.307517648E-1,-2.065236568E0,2.869820751E-2,2.132539122E0
8.990209250E0,-5.736875769E-1,-2.250348891E0,-1.841412462E-2,2.322396746E0
9.000167250E0,-6.918463567E-1,-2.488084985E0,1.049575210E-1,2.584614934E0
9.010125250E0,-8.324476272E-1,-2.805180659E0,3.120319124E-1,2.942681005E0
9.020084250E0,-1.104091432E0,-3.115415211E0,4.632748961E-1,3.337581977E0
9.030042250E0,-1.403534655E0,-3.374178477E0,5.709337576E-1,3.698777538E0
9.040000250E0,-1.614193755E0,-3.630071930E0,6.667018676E-1,4.028341479E0
9.049959250E0,-1.805537455E0,-3.914190477E0,6.930703982E-1,4.365913326E0
9.059917250E0,-2.033469523E0,-4.161858652E0,6.940832090E-1,4.683782364E0
9.069875250E0,-2.289557103E0,-4.398432319E0,7.225112021E-1,5.011017964E0
9.079834250E0,-2.504191433E0,-4.628619658E0,7.735890428E-1,5.319166728E0
9.089792250E0,-2.747379763E0,-4.865248874E0,7.826592437E-1,5.641923223E0
9.099750250E0,-2.952599783E0,-5.086259007E0,7.337741089E-1,5.926744521E0
9.109709250E0,-3.112117381E0,-5.247194263E0,6.883085719E-1,6.139388481E0
9.119667250E0,-3.209883412E0,-5.370104490E0,5.752199860E-1,6.282694627E0
9.129625250E0,-3.308960388E0,-5.498925083E0,4.133186976E-1,6.431036328E0
9.139584250E0,-3.325317389E0,-5.582725039E0,1.350250733E-1,6.499445081E0
9.149542250E0,-3.383923447E0,-5.534501297E0,-1.402746304E-1,6.488552956E0
9.159500250E0,-3.558962186E0,-5.484512281E0,-3.156782361E-1,6.545665707E0
9.169459250E0,-3.798970800E0,-5.479990629E0,-2.822988939E-1,6.673991991E0
9.179417250E0,-4.022607211E0,-5.474976642E0,-1.815945645E-1,6.796301537E0
9.189375250E0,-4.173175060E0,-5.420789325E0,-4.907326899E-2,6.841253918E0
9.199334250E0,-4.293367502E0,-5.209269807E0,1.575497905E-1,6.752356504E0
9.209292250E0,-4.272350855E0,-4.810478590E0,3.672566716E-1,6.444265943E0
9.219250250E0,-3.962316863E0,-4.363858902E0,3.152607449E-1,5.902762809E0
9.229209250E0,-3.608312686E0,-3.987399371E0,-4.168589674E-2,5.377825946E0
9.239167250E0,-3.380513350E0,-3.662517545E0,-4.266070068E-1,5.002389311E0
9.249125250E0,-3.032378024E0,-3.312259387E0,-6.779226013E-1,4.541580978E0
9.259084250E0,-2.504818254E0,-2.998577317E0,-8.463433890E-1,3.997734051E0
9.269042250E0,-2.039506188E0,-2.803146998E0,-1.010967068E0,3.610993353E0
9.279000250E0,-1.640286955E0,-2.758165537E0,-1.147148794E0,3.407927344E0
9.288959250E0,-1.303913303E0,-2.839427801E0,-1.153669608E0,3.330689674E0
9.298917250E0,-1.057861007E0,-3.070597472E0,-1.003675809E0,3.399265196E0
9.308875250E0,-1.052383920E0,-3.139672970E0,-6.881237999E-1,3.382095894E0
9.318834250E0,-1.121313237E0,-2.784583257E0,-2.296189161E-1,3.010643144E0
9.328792250E0,-8.649294949E-1,-2.449323208E0,7.283412416E-2,2.598574997E0
9.338750250E0,-4.696679494E-1,-2.056680923E0,2.649934745E-1,2.126204586E0
9.348709250E0,1.406313837E-2,-1.460092433E0,3.835703301E-1,1.509699932E0
9.358667250E0,5.870218599E-1,-9.231695169E-1,3.437098976E-1,1.146722771E0
9.368625250E0,1.094815702E0,-5.670360768E-1,1.190691912E-1,1.238680268E0
9.378584250E0,1.338546946E0,-3.081646371E-1,-1.779237556E-1,1.385037990E0
9.388542250E0,1.106849272E0,-5.005859792E-2,-4.188068211E-1,1.184491590E0
9.398500250E0,7.954698354E-1,1.658837539E-1,-4.432856047E-1,9.256304912E-1
9.408459250E0,9.173632318E-1,4.007225525E-1,-1.647213274E-1,1.014527959E0
9.418417250E0,1.216673430E0,8.519615400E-1,2.171761143E-1,1.501098986E0
9.428375250E0,1.692340915E0,1.308983424E0,3.863840103E-1,2.174108548E0
9.438334250E0,2.209567485E0,1.649335814E0,3.961418438E-1,2.785574529E0
9.448292625E0,2.592775288E0,1.882377763E0,4.043588994E-1,3.229448228E0
9.458250625E0,2.775678533E0,1.878888729E0,4.388376278E-1,3.380413087E0
9.468209625E0,2.587351411E0,1.607585524E0,4.408981866E-1,3.077841736E0
9.478167625E0,2.102083967E0,1.413287811E0,5.177346933E-1,2.585379789E0
9.488125625E0,1.872398320E0,1.628170647E0,8.368623481E-1,2.618616756E0
9.498084625E0,2.126302550E0,2.029870269E0,1.251542716E0,3.194979658E0
9.508042625E0,2.647774199E0,2.451441069E0,1.527673967E0,3.918425611E0
9.518000625E0,3.189801734E0,2.839121992E0,1.632347313E0,4.571652495E0
9.527959625E0,3.698211288E0,3.073132825E0,1.558799865E0,5.054776860E0
9.537917625E0,4.007541860E0,3.040279659E0,1.321725091E0,5.201023878E0
9.547875625E0,3.969747797E0,2.762924586E0,1.082893668E0,4.956340236E0
9.557834625E0,3.775146028E0,2.372651008E0,9.592871102E-1,4.560858702E0
9.567792625E0,3.709840815E0,2.274301425E0,9.909738296E-1,4.462890877E0
9.577751625E0,3.928928384E0,2.554404690E0,1.053337235E0,4.803226093E0
9.587709625E0,4.372399930E0,3.020498528E0,1.080458302E0,5.422977287E0
9.597667625E0,4.878641337E0,3.460086354E0,1.060138789E0,6.074309271E0
9.607626625E0,5.350139757E0,3.782003058E0,9.314078052E-1,6.617783847E0
9.617584625E0,5.679685907E0,3.904144376E0,6.473184939E-1,6.922441516E0
9.627542625E0,5.754740767E0,3.829015256E0,3.732733834E-1,6.922263514E0
9.637501625E0,5.572014109E0,3.652500095E0,3.379339814E-1,6.671004238E0
9.647459625E0,5.256821119E0,3.434014204E0,5.591284485E-1,6.303907237E0
9.657417625E0,4.953393311E0,3.299199046E0,9.058722836E-1,6.020085068E0
9.667376625E0,4.871100767E0,3.434738089E0,1.169059115E0,6.073857723E0
9.677334625E0,4.993396452E0,3.677924373E0,1.166878469E0,6.310526221E0
9.687292625E0,5.134530112E0,3.832477977E0,8.691570318E-1,6.465811694E0
9.697251625E0,5.136295971E0,3.767668608E0,3.785616052E-1,6.381235925E0
9.707209625E0,4.973570883E0,3.434933971E0,-9.971965827E-2,6.045256216E0
9.717167625E0,4.717483302E0,3.026446901E0,-3.033938938E-1,5.613027473E0
9.727126625E0,4.383017305E0,2.661123392E0,-1.415540743E-1,5.129566839E0
9.737084625E0,4.007018534E0,2.318950179E0,1.971393874E-1,4.633852760E0
9.747042625E0,3.648328691E0,2.017140881E0,5.632073931E-1,4.206704427E0
9.757001625E0,3.354523062E0,1.733503559E0,8.587185824E-1,3.872371000E0
9.766959625E0,3.115014092E0,1.432587131E0,1.029786551E0,3.579955170E0
9.776917625E0,2.937790833E0,1.181327012E0,1.066653757E0,3.341242093E0
9.786876625E0,2.831696028E0,9.664254642E-1,9.657063297E-1,3.144053003E0
9.796834625E0,2.744876570E0,7.147630566E-1,7.532096690E-1,2.934716071E0
9.806792625E0,2.570064118E0,4.627597564E-1,6.445561230E-1,2.689763699E0
9.816751625E0,2.231228496E0,2.616669935E-1,7.187613827E-1,2.358700520E0
9.826709625E0,1.844903542E0,9.145045280E-3,8.799182475E-1,2.044017817E0
9.836667625E0,1.372816892E0,-2.698875940E-1,1.043813363E0,1.745569211E0
9.846626625E0,9.434061456E-1,-4.636649054E-1,1.235852298E0,1.622446055E0
9.856584625E0,7.003917700E-1,-6.670895380E-1,1.288162658E0,1.610875575E0
9.866542625E0,4.343472585E-1,-9.512829298E-1,9.932255924E-1,1.442253040E0
9.876501625E0,1.535054907E-1,-1.132651865E0,5.670840240E-1,1.275950028E0
9.886459625E0,-2.855195403E-3,-1.337141860E0,2.349914110E-1,1.357636722E0
9.896417625E0,-1.570328236E-1,-1.553466035E0,1.463908911E-2,1.561451355E0
9.906376625E0,-3.076518363E-1,-1.664055594E0,-1.113263448E-1,1.695913980E0
9.916334625E0,-4.079198903E-1,-1.883503937E0,-1.413997078E-1,1.932350795E0
9.926293625E0,-5.216263077E-1,-2.196834004E0,3.864655059E-2,2.258244274E0
9.936251625E0,-5.800554872E-1,-2.458442525E0,3.771723068E-1,2.553950463E0
9.946209625E0,-6.154308495E-1,-2.753762584E0,6.287791657E-1,2.890904138E0
9.956168625E0,-7.518238789E-1,-3.029216142E0,7.280730736E-1,3.204914973E0
9.966126625E0,-8.902005762E-1,-3.196381606E0,7.222621107E-1,3.395728934E0
9.976084625E0,-1.033100680E0,-3.379540958E0,6.946632528E-1,3.601548436E0
9.986043625E0,-1.216347448E0,-3.589503947E0,6.484515381E-1,3.845065552E0
9.996001625E0,-1.442966816E0,-3.804301414E0,5.891128973E-1,4.111194047E0
1.000595963E1,-1.717576621E0,-4.046753288E0,5.656281038E-1,4.432405303E0
1.001591863E1,-1.986221389E0,-4.279480072E0,6.082075647E-1,4.756988705E0
1.002587662E1,-2.234060595E0,-4.482319983E0,6.654833078E-1,5.052235862E0
1.003583463E1,-2.466880642E0,-4.647495639E0,6.805621076E-1,5.305457624E0
1.004579363E1,-2.632318838E0,-4.772938296E0,6.453853313E-1,5.488767135E0
1.005575162E1,-2.721590618E0,-4.820584332E0,6.023674388E-1,5.568476931E0
1.006570963E1,-2.832533934E0,-4.819977976E0,5.532202026E-1,5.617961265E0
1.007566863E1,-2.941868388E0,-4.768823025E0,4.748676590E-1,5.623323035E0
1.008562662E1,-2.967961003E0,-4.763491534E0,3.456300867E-1,5.623086721E0
1.009558463E1,-2.993167473E0,-4.771601037E0,1.009721319E-1,5.633597727E0
1.010554362E1,-3.065191721E0,-4.769786646E0,-1.450109482E-1,5.671621736E0
1.011550162E1,-3.052596819E0,-4.811718199E0,-3.620198321E-1,5.709819413E0
1.012545963E1,-2.977026527E0,-4.856245916E0,-4.823390119E-1,5.716507873E0
1.013541862E1,-2.975666172E0,-4.881400053E0,-5.302207645E-1,5.741410080E0
1.014537663E1,-3.066288367E0,-4.896744316E0,-4.995438592E-1,5.799118322E0
1.015533463E1,-3.200989212E0,-4.796118997E0,-3.260044190E-1,5.775410657E0
1.016529362E1,-3.342353544E0,-4.533096035E0,-1.200154169E-1,5.633355179E0
1.017525163E1,-3.359684106E0,-4.230160562E0,-2.702100679E-2,5.402079767E0
1.018521063E1,-3.297626145E0,-3.878800204E0,-6.525368415E-2,5.091530935E0
1.019516862E1,-3.235819906E0,-3.449696437E0,-2.072533163E-1,4.734330988E0
1.020512663E1,-3.100551296E0,-3.119282559E0,-5.301296210E-1,4.429941246E0
1.021508563E1,-2.889386120E0,-2.960713087E0,-9.714705880E-1,4.249485761E0
1.022504362E1,-2.614974827E0,-2.857495698E0,-1.318499182E0,4.091676319E0
1.023500163E1,-2.313111442E0,-2.780072715E0,-1.503723918E0,3.916691776E0
1.024496062E1,-2.017733204E0,-2.852481710E0,-1.559828975E0,3.826351476E0
1.025491862E1,-1.882138612E0,-2.869276083E0,-1.456535572E0,3.727826024E0
1.026487663E1,-1.940242394E0,-2.709059451E0,-1.093494743E0,3.507032136E0
1.027483562E1,-1.969490459E0,-2.656489474E0,-4.163709442E-1,3.333045717E0
1.028479363E1,-2.014626870E0,-2.654902539E0,4.098792922E-1,3.357860919E0
1.029475163E1,-1.985907101E0,-2.525948045E0,1.146969942E0,3.411712267E0
1.030471062E1,-1.691656499E0,-2.444509195E0,1.532833550E0,3.344683185E0
1.031466863E1,-1.252543175E0,-2.359754389E0,1.524483726E0,3.075931698E0
1.032462663E1,-6.258576044E-1,-2.256642834E0,1.121455032E0,2.596496873E0
1.033458562E1,5.837333858E-2,-2.091996351E0,4.175157924E-1,2.134051456E0
1.034454363E1,5.863020676E-1,-1.829843454E0,-3.480367641E-1,1.952743396E0
1.035450163E1,7.220741227E-1,-1.408759727E0,-8.551657411E-1,1.799250803E0
1.036446062E1,5.317712268E-1,-9.602677613E-1,-7.512970448E-1,1.330166178E0
1.037441863E1,3.332401291E-1,-7.592170984E-1,7.749782681E-2,8.327457590E-1
1.038437663E1,3.497102737E-2,-8.136178386E-1,1.182901082E0,1.436123926E0
1.039433562E1,-1.586928481E-1,-7.621605867E-1,2.039774283E0,2.183289103E0
1.040429363E1,-1.019169688E-2,-6.646635282E-1,2.501399095E0,2.588219254E0
1.041425262E1,5.359405839E-1,-5.442559093E-1,2.209397331E0,2.337709001E0
1.042421063E1,1.079250414E0,-2.749202925E-1,1.149636272E0,1.600633056E0
1.043416863E1,1.429866421E0,-2.441154063E-2,-2.301487470E-1,1.448475872E0
1.044412762E1,1.612020053E0,1.368844879E-1,-1.492146285E0,2.200874042E0
1.045408563E1,1.414311073E0,2.594245863E-1,-2.231352457E0,2.654526458E0
1.046404363E1,9.305884641E-1,3.778967768E-1,-2.150031720E0,2.373064951E0
1.047400262E1,4.801990771E-1,5.521075505E-1,-1.117329236E0,1.335604179E0
1.048396063E1,3.968587124E-1,6.516803706E-1,4.297808389E-1,8.757258204E-1
1.049391863E1,7.294220263E-1,8.323283440E-1,1.587107406E0,1.934873867E0
1.050387762E1,1.346892677E0,1.177537431E0,2.077946661E0,2.742002300E0
1.051383563E1,2.172640564E0,1.436660886E0,1.771183602E0,3.149833785E0
1.052379363E1,2.831115984E0,1.755048210E0,8.972312683E-1,3.449700840E0
1.053375262E1,3.211438771E0,2.205804802E0,-6.723596334E-2,3.896592676E0
1.054371063E1,3.579292370E0,2.693885341E0,-7.846618420E-1,4.547971670E0
1.055366862E1,4.361482594E0,3.244575527E0,-1.005515855E0,5.528188031E0
1.056362763E1,5.303307652E0,3.827230686E0,-7.311112869E-1,6.580827493E0
1.057358563E1,6.098169377E0,4.229696293E0,-2.019050874E-2,7.421482881E0
1.058354362E1,6.786839819E0,4.496528133E0,8.823068351E-1,8.188920889E0
1.059350263E1,7.357759616E0,4.727172723E0,1.609489962E0,8.892313898E0
1.060346063E1,7.812804556E0,4.913207152E0,1.875169900E0,9.417843793E0
1.061341962E1,8.109357793E0,5.087950607E0,1.751100170E0,9.732177403E0
1.062337763E1,8.191896504E0,5.211820947E0,1.397722523E0,9.809376849E0
1.063333563E1,8.051250502E0,5.233898864E0,8.727922457E-1,9.642515143E0
1.064329462E1,7.781008567E0,5.161553603E0,2.543130235E-1,9.340792527E0
1.065325263E1,7.399779462E0,4.988474851E0,-2.348925930E-1,8.927305974E0
1.066321063E1,6.954923295E0,4.698437752E0,-4.661704373E-1,8.406163823E0
1.067316962E1,6.476604683E0,4.370259265E0,-4.686438096E-1,7.827209035E0
1.068312763E1,6.006756932E0,4.012086900E0,-4.254107030E-1,7.235948065E0
1.069308562E1,5.601566522E0,3.580109226E0,-4.335097180E-1,6.662031240E0
1.070304462E1,5.165871187E0,3.162536168E0,-4.813334370E-1,6.076145325E0
1.071300263E1,4.604982288E0,2.787640767E0,-4.890827153E-1,5.405183144E0
1.072296062E1,3.961038954E0,2.398589841E0,-4.652898832E-1,4.653982971E0
1.073291963E1,3.358325506E0,1.953129657E0,-4.429242102E-1,3.910146738E0
1.074287763E1,2.789565085E0,1.600564188E0,-3.485700667E-1,3.234962160E0
1.075283562E1,2.378844963E0,1.381007672E0,-2.155909524E-1,2.759087713E0
1.076279463E1,2.214016047E0,1.122881168E0,-1.327476011E-1,2.486031194E0
1.077275263E1,2.129296909E0,8.747452158E-1,-6.757160266E-2,2.302965575E0
1.078271062E1,2.094957381E0,6.866022813E-1,8.792458177E-2,2.206354426E0
1.079266963E1,2.008371227E0,4.425979722E-1,2.011793017E-1,2.066378731E0
1.080262763E1,1.690883204E0,2.424711692E-1,1.831792331E-1,1.717973489E0
1.081258662E1,1.397662881E0,1.486771524E-2,2.069610286E-1,1.412981049E0
1.082254463E1,1.149778360E0,-3.079675859E-1,3.358219671E-1,1.236774314E0
1.083250263E1,8.220419222E-1,-5.863365662E-1,5.406148481E-1,1.145341829E0
1.084246162E1,5.039691782E-1,-8.917366397E-1,7.040187979E-1,1.242908538E0
1.085241963E1,1.850164282E-1,-1.259604857E0,7.624207878E-1,1.483954491E0
1.086237762E1,-1.459660909E-1,-1.517021509E0,7.780691063E-1,1.711155134E0
1.087233663E1,-4.062622046E-1,-1.723037628E0,7.901810288E-1,1.938631916E0
1.088229463E1,-5.211345568E-1,-1.859636772E0,8.460663772E-1,2.108473017E0
1.089225262E1,-5.504852405E-1,-1.964189081E0,8.652265334E-1,2.215781961E0
1.090221163E1,-5.759016252E-1,-2.140166298E0,8.506201887E-1,2.373926951E0
1.091216963E1,-6.360899395E-1,-2.433053330E0,8.534198356E-1,2.655689051E0
1.092212762E1,-7.632130855E-1,-2.709773980E0,9.575376964E-1,2.973591714E0
1.093208663E1,-9.672955298E-1,-2.875869988E0,1.131999900E0,3.238473808E0
1.094204463E1,-1.241081755E0,-2.936212084E0,1.269574360E0,3.431245311E0
1.095200262E1,-1.392534288E0,-2.953612229E0,1.370901929E0,3.541517901E0
1.096196163E1,-1.450033176E0,-3.021180314E0,1.425396810E0,3.641686802E0
1.097191963E1,-1.490472811E0,-3.072660955E0,1.385673165E0,3.685491102E0
1.098187762E1,-1.523673302E0,-3.129739720E0,1.194912432E0,3.680307971E0
1.099183663E1,-1.559935687E0,-3.312392703E0,9.090841591E-1,3.772502986E0
1.100179462E1,-1.654769046E0,-3.532111772E0,6.485146880E-1,3.954066953E0
1.101175363E1,-1.799766254E0,-3.688245293E0,4.126040947E-1,4.124627747E0
1.102171163E1,-1.934952418E0,-3.825167788E0,3.011468089E-1,4.297282731E0
1.103166962E1,-2.012898141E0,-3.827837627E0,3.282298692E-1,4.337261195E0
1.104162863E1,-1.952708073E0,-3.782232853E0,4.754078686E-1,4.283032432E0
1.105158663E1,-1.911943039E0,-3.732128062E0,6.703680718E-1,4.246610344E0
1.106154462E1,-1.843269538E0,-3.710857061E0,7.760787872E-1,4.215495345E0
1.107150363E1,-1.853241672E0,-3.797796387E0,6.852762790E-1,4.281047263E0
1.108146163E1,-1.957468291E0,-3.944416489E0,4.200687233E-1,4.423410594E0
1.109141962E1,-2.030497091E0,-4.111456822E0,1.106737590E-1,4.586855602E0
1.110137863E1,-2.104634815E0,-4.306905853E0,-2.036304545E-1,4.797956970E0
1.111133663E1,-2.266357690E0,-4.499424843E0,-5.060051787E-1,5.063323251E0
1.112129462E1,-2.467309535E0,-4.682783586E0,-7.348991132E-1,5.343795951E0
1.113125363E1,-2.720841590E0,-4.795628416E0,-7.559922858E-1,5.565299201E0
1.114121162E1,-2.985305307E0,-4.824190895E0,-5.682908162E-1,5.701562945E0
1.115117063E1,-3.209280271E0,-4.765326975E0,-2.502715011E-1,5.750691859E0
1.116112863E1,-3.420294297E0,-4.603636259E0,9.883672871E-2,5.735995867E0
1.117108662E1,-3.583251227E0,-4.392033711E0,3.150713682E-1,5.677052003E0
1.118104563E1,-3.660928564E0,-4.190018257E0,2.607250801E-1,5.570155161E0
1.119100363E1,-3.651069866E0,-4.016418518E0,-2.263099037E-2,5.427931562E0
1.120096162E1,-3.536108636E0,-3.849096934E0,-3.833176573E-1,5.240853358E0
1.121092063E1,-3.436202817E0,-3.742893956E0,-7.691333914E-1,5.138901744E0
1.122087863E1,-3.266250863E0,-3.765105189E0,-1.121216465E0,5.108966446E0
1.123083662E1,-3.084492211E0,-3.771188632E0,-1.292663845E0,5.040529309E0
1.124079563E1,-2.932371341E0,-3.718516914E0,-1.197109816E0,4.884592268E0
1.125075363E1,-2.855113542E0,-3.591502526E0,-8.873442113E-1,4.673108546E0
1.126071162E1,-2.924543673E0,-3.508447505E0,-4.927637203E-1,4.594015202E0
1.127067063E1,-3.019897727E0,-3.554413637E0,-1.367570186E-1,4.666084126E0
1.128062862E1,-2.974318389E0,-3.445025681E0,2.992499721E-1,4.561175546E0
1.129058763E1,-2.569909751E0,-3.213358997E0,6.180800036E-1,4.160785390E0
1.130054563E1,-1.945383558E0,-2.746499172E0,6.006610751E-1,3.418854870E0
1.131050362E1,-1.172747977E0,-2.292238929E0,3.747234929E-1,2.601944430E0
1.132046263E1,-2.659667435E-1,-1.991307297E0,1.626921974E-2,2.009056432E0
1.133042063E1,4.509056962E-1,-1.645853797E0,-2.930541893E-1,1.731482436E0
1.134037862E1,1.007362406E0,-1.469284841E0,-5.838327154E-1,1.874683333E0
1.135033763E1,1.053575290E0,-1.413308861E0,-7.154172870E-1,1.902441779E0
1.136029563E1,5.895040029E-1,-1.268803697E0,-4.730093408E-1,1.476860057E0
1.137025362E1,1.937387198E-1,-8.175132537E-1,1.985574468E-1,8.633004524E-1
1.138021263E1,2.884922647E-1,-2.539662105E-1,8.819600221E-1,9.620707372E-1
1.139017063E1,7.897623682E-1,2.802073449E-1,1.167298372E0,1.436950327E0
1.140012862E1,1.428869471E0,7.986396110E-1,9.754301763E-1,1.905507077E0
1.141008763E1,2.148972790E0,1.115511922E0,4.183693763E-1,2.457129185E0
1.142004562E1,2.848676342E0,1.294955953E0,-2.876408371E-1,3.142388435E0
1.143000362E1,3.100891312E0,1.338032391E0,-9.012173152E-1,3.495432771E0
1.143996263E1,2.909502003E0,1.244065297E0,-1.091258841E0,3.347199759E0
1.144992000E1,2.725045738E0,1.443448334E0,-6.107592165E-1,3.143635505E0
1.145987900E1,2.861815036E0,2.036052530E0,2.508806531E-1,3.521141336E0
1.146983700E1,3.393107668E0,2.703028632E0,9.294044030E-1,4.436590581E0
1.147979500E1,4.180877305E0,3.370238038E0,1.203285645E0,5.503284094E0
1.148975400E1,4.974622797E0,3.813364014E0,1.080929149E0,6.360583692E0
1.149971200E1,5.611815521E0,4.022924715E0,7.228094101E-1,6.942539171E0
1.150967000E1,5.906247972E0,4.074943299E0,3.387724721E-1,7.183571172E0
1.151962900E1,5.952921032E0,4.034196977E0,5.717991273E-2,7.191333924E0
1.152958700E1,6.026131681E0,4.116601787E0,3.504411757E-2,7.298075184E0
1.153954500E1,6.313226461E0,4.379069849E0,1.984597617E-1,7.685861524E0
1.154950400E1,6.683216633E0,4.626778370E0,3.175213150E-1,8.134696210E0
1.155946200E1,7.077506078E0,4.855823747E0,3.603322892E-1,8.590690072E0
1.156942000E1,7.305976675E0,4.998325655E0,3.158853006E-1,8.857784037E0
1.157937900E1,7.308122603E0,4.912435904E0,1.572041835E-1,8.807121871E0
1.158933700E1,6.975300257E0,4.571231575E0,-1.032263797E-2,8.339728913E0
1.159929600E1,6.452926968E0,4.161234169E0,-1.267775391E-1,7.679336482E0
1.160925400E1,5.918179216E0,3.812237256E0,-5.891303658E-2,7.039990687E0
1.161921200E1,5.516508830E0,3.697272810E0,5.770032406E-2,6.641161436E0
1.162917100E1,5.307994781E0,3.629584857E0,-5.602571804E-2,6.430539146E0
1.163912900E1,5.187409991E0,3.475255201E0,-3.276323569E-1,6.252516620E0
1.164908700E1,4.993599350E0,3.235246879E0,-5.274872643E-1,5.973365856E0
1.165904600E1,4.662636420E0,2.841653836E0,-6.233956343E-1,5.495798124E0
1.166900400E1,4.259866172E0,2.323381784E0,-6.156831568E-1,4.891178638E0
1.167896200E1,3.796070289E0,1.829869766E0,-4.099564755E-1,4.233985984E0
1.168892100E1,3.273005859E0,1.583930029E0,5.847782101E-3,3.636129245E0
1.169887900E1,2.877637017E0,1.390961387E0,4.090279011E-1,3.222246453E0
1.170883700E1,2.647353784E0,1.166918887E0,5.458212090E-1,2.944164149E0
1.171879600E1,2.500467634E0,9.257715279E-1,4.991808933E-1,2.712668957E0
1.172875400E1,2.412217947E0,6.553740567E-1,4.333254576E-1,2.536943344E0
1.173871300E1,2.243200670E0,3.427117413E-1,3.334035587E-1,2.293590747E0
1.174867100E1,1.941160406E0,1.335562527E-2,3.034997284E-1,1.964788584E0
1.175862900E1,1.547590168E0,-2.505882740E-1,4.211246574E-1,1.623322454E0
1.176858800E1,1.035244853E0,-4.179542971E-1,6.405273914E-1,1.287125884E0
1.177854600E1,5.752280259E-1,-5.850741524E-1,7.620980215E-1,1.119818039E0
1.178850400E1,2.429909867E-1,-6.848609805E-1,8.418598902E-1,1.112118365E0
1.179846300E1,1.426901883E-1,-7.816055024E-1,8.014895439E-1,1.128562422E0
1.180842100E1,1.270962489E-1,-1.032861528E0,5.568899882E-1,1.180289309E0
1.181837900E1,5.523279905E-3,-1.315917052E0,2.971110606E-1,1.349052696E0
1.182833800E1,-1.387456566E-1,-1.522281665E0,1.325154483E-1,1.534324662E0
1.183829600E1,-3.196602631E-1,-1.718187947E0,3.718946099E-2,1.748066235E0
1.184825500E1,-5.801054808E-1,-1.831401152E0,1.070110631E-1,1.924059229E0
1.185821300E1,-8.362708291E-1,-1.841327385E0,3.465598305E-1,2.051813626E0
1.186817100E1,-9.734181494E-1,-1.844883662E0,5.581833923E-1,2.159330294E0
1.187813000E1,-9.681451303E-1,-1.944791527E0,6.483252382E-1,2.267122558E0
1.188808800E1,-9.242638233E-1,-2.125549428E0,6.318325087E-1,2.402381382E0
1.189804600E1,-9.048753333E-1,-2.310738934E0,5.702263176E-1,2.546266256E0
1.190800500E1,-8.892161974E-1,-2.451525854E0,4.820338603E-1,2.651988141E0
1.191796300E1,-8.786379996E-1,-2.571479144E0,3.358769310E-1,2.738123999E0
1.192792100E1,-9.223593852E-1,-2.673524752E0,3.134762843E-1,2.845478662E0
1.193788000E1,-1.005481356E0,-2.795857274E0,4.249066730E-1,3.001392399E0
1.194783800E1,-1.119878915E0,-2.979313080E0,5.281497538E-1,3.226356672E0
1.195779700E1,-1.264366245E0,-3.184240447E0,5.892718685E-1,3.476384697E0
1.196775500E1,-1.481650240E0,-3.415929936E0,6.005289280E-1,3.771538115E0
1.197771300E1,-1.738361134E0,-3.690100030E0,5.983923554E-1,4.122718894E0
1.198767200E1,-2.017091764E0,-3.960641928E0,6.014095187E-1,4.485202010E0
1.199763000E1,-2.377685460E0,-4.155945947E0,6.179268066E-1,4.827743614E0
1.200758800E1,-2.695540396E0,-4.337373939E0,6.602559701E-1,5.149241562E0
1.201754700E1,-2.883229879E0,-4.513986164E0,7.335191703E-1,5.406212722E0
1.202750500E1,-3.038281958E0,-4.609836062E0,7.893016807E-1,5.577162623E0
1.203746300E1,-3.084996241E0,-4.614760002E0,8.425861875E-1,5.614549240E0
1.204742200E1,-2.990519269E0,-4.654605854E0,7.947547209E-1,5.589292998E0
1.205738000E1,-2.889524114E0,-4.707911410E0,6.456892403E-1,5.561537022E0
1.206733800E1,-2.862692118E0,-4.778893100E0,4.981908866E-1,5.592943732E0
1.207729700E1,-2.878673728E0,-4.809034912E0,3.656475178E-1,5.616696300E0
1.208725500E1,-2.919066879E0,-4.811648617E0,3.125360155E-1,5.636540838E0
1.209721400E1,-3.015380753E0,-4.841710907E0,3.681079531E-1,5.715784203E0
1.210717200E1,-3.044003751E0,-4.778876728E0,4.107458496E-1,5.680874384E0
1.211713000E1,-3.031431360E0,-4.574791360E0,3.633775556E-1,5.500030484E0
1.212708900E1,-2.923748744E0,-4.293123965E0,3.293667141E-1,5.204584761E0
1.213704700E1,-2.732102450E0,-3.879853288E0,3.312657436E-1,4.756824816E0
1.214700500E1,-2.551831330E0,-3.496010478E0,2.121160070E-1,4.333465772E0
1.215696400E1,-2.385761050E0,-3.309367354E0,1.465312243E-3,4.079677710E0
1.216692200E1,-2.148028757E0,-3.188439333E0,-2.409145673E-1,3.852040076E0
1.217688000E1,-1.986473404E0,-3.014981681E0,-4.694553300E-1,3.640958586E0
1.218683900E1,-1.825431730E0,-2.883299460E0,-6.922986388E-1,3.482081875E0
1.219679700E1,-1.690889052E0,-2.811910805E0,-7.995435905E-1,3.377161250E0
1.220675600E1,-1.648454346E0,-2.744288925E0,-7.755056139E-1,3.293923556E0
1.221671400E1,-1.685703448E0,-2.562425315E0,-5.154645849E-1,3.110196674E0
1.222667200E1,-1.582727549E0,-2.461250358E0,-9.481011674E-2,2.927758320E0
1.223663100E1,-1.504218154E0,-2.184692845E0,2.181058947E-1,2.661414147E0
1.224658900E1,-1.313103664E0,-1.666995574E0,2.487920094E-1,2.136589090E0
1.225654700E1,-9.014322004E-1,-1.375228869E0,-7.831877589E-2,1.646198130E0
1.226650600E1,-5.210135195E-1,-1.214592406E0,-6.233577005E-1,1.461254469E0
1.227646400E1,-2.652630311E-1,-9.979817176E-1,-1.025623772E0,1.455416128E0
1.228642200E1,-1.013416028E-1,-9.541042113E-1,-1.205024680E0,1.540347184E0
1.229638100E1,-1.905490637E-1,-9.857434952E-1,-1.201208714E0,1.565535550E0
1.230633900E1,-2.928507793E-1,-8.349630994E-1,-9.259580541E-1,1.280751059E0
1.231629700E1,-1.778734696E-1,-6.661042821E-1,-2.622873831E-1,7.376507013E-1
1.232625600E1,-1.642553043E-1,-4.331974036E-1,5.445956326E-1,7.149994395E-1
1.233621400E1,-8.742698371E-2,1.694680971E-1,1.235791487E0,1.250417335E0
1.234617300E1,4.094495219E-1,8.759316158E-1,1.495368100E0,1.780738853E0
1.235613100E1,1.180750476E0,1.317744892E0,1.156992069E0,2.114061006E0
1.236608900E1,1.840032227E0,1.632943729E0,3.925808895E-1,2.491253414E0
1.237604800E1,2.326524078E0,1.602550487E0,-4.643800199E-1,2.862958461E0
1.238600600E1,2.529741719E0,1.371477880E0,-1.120027142E0,3.087880428E0
1.239596400E1,2.275224116E0,1.390886543E0,-1.245472137E0,2.943197410E0
1.240592300E1,1.942347391E0,1.514962120E0,-7.250336909E-1,2.567780650E0
1.241588100E1,1.745292715E0,1.593236457E0,1.879049345E-1,2.370602737E0
1.242584000E1,1.601164697E0,1.870640062E0,1.050096781E0,2.676887349E0
1.243579800E1,1.893424323E0,2.264230181E0,1.568293405E0,3.342355185E0
1.244575629E1,2.603766299E0,2.697364435E0,1.534607595E0,4.050974489E0
1.245571529E1,3.372538918E0,3.015099794E0,1.009434659E0,4.635062443E0
1.246567329E1,3.956996189E0,3.147135771E0,3.141661827E-1,5.065667063E0
1.247563129E1,4.450324019E0,3.210954621E0,-2.695461166E-1,5.494385185E0
1.248559029E1,4.570156272E0,3.295676683E0,-5.213599670E-1,5.658588991E0
1.249554829E1,4.480478110E0,3.407709335E0,-2.337471235E-1,5.633986575E0
1.250550629E1,4.465440241E0,3.545865008E0,4.583071017E-1,5.720433602E0
1.251546529E1,4.613029227E0,3.712665605E0,1.061383077E0,6.015850611E0
1.252542329E1,4.945882562E0,3.864575683E0,1.323026097E0,6.414600345E0
1.253538229E1,5.399207252E0,3.933030206E0,1.220180517E0,6.790361260E0
1.254534029E1,5.781812207E0,3.917459655E0,8.776629764E-1,7.038901537E0
1.255529829E1,5.920455537E0,3.774594051E0,4.848639858E-1,7.038071262E0
1.256525729E1,5.783234249E0,3.615273796E0,2.566103214E-1,6.825089879E0
1.257521529E1,5.432464460E0,3.468939039E0,1.975493503E-1,6.448583869E0
1.258517329E1,4.923830958E0,3.332017713E0,2.542567806E-1,5.950722633E0
1.259513229E1,4.525920916E0,3.221630468E0,4.099388973E-1,5.570539732E0
1.260509029E1,4.359832510E0,3.091567926E0,4.851598549E-1,5.366685368E0
1.261504929E1,4.352174411E0,2.906241596E0,3.624326456E-1,5.245857389E0
1.262500729E1,4.328004361E0,2.678082072E0,1.713315682E-1,5.092455187E0
1.263496529E1,4.172656705E0,2.427642317E0,4.365410607E-2,4.827671993E0
1.264492429E1,3.871752555E0,2.185851763E0,5.760735333E-2,4.446541846E0
1.265488229E1,3.513916406E0,1.986543571E0,2.212808597E-1,4.042638877E0
1.266484029E1,3.192395559E0,1.799188256E0,4.671726866E-1,3.694146465E0
1.267479929E1,2.970190254E0,1.568215052E0,6.417687553E-1,3.419531508E0
1.268475729E1,2.826624738E0,1.305031875E0,6.834085321E-1,3.187469659E0
1.269471529E1,2.770040647E0,1.050903697E0,5.397173005E-1,3.011447913E0
1.270467429E1,2.756954579E0,8.379188669E-1,2.415642661E-1,2.891584319E0
1.271463229E1,2.715670313E0,6.660083878E-1,-6.489532292E-2,2.796898965E0
1.272459129E1,2.541326222E0,4.263871515E-1,-1.796767509E-1,2.583104471E0
1.273454929E1,2.173965544E0,1.659153289E-1,-2.055120885E-2,2.180384469E0
1.274450729E1,1.733028765E0,-1.152731788E-1,3.129581845E-1,1.764828443E0
1.275446629E1,1.282383855E0,-4.240424180E-1,6.873302597E-1,1.515500976E0
1.276442429E1,8.911180043E-1,-6.572761559E-1,9.671481800E-1,1.470196873E0
1.277438229E1,5.736492777E-1,-8.180003268E-1,1.013318964E0,1.423029638E0
1.278434129E1,4.172520465E-1,-9.554864931E-1,8.148130095E-1,1.323243723E0
1.279429929E1,2.553584325E-1,-1.036638245E0,4.465518594E-1,1.157253362E0
1.280425729E1,4.087817699E-2,-1.094083630E0,1.534870537E-1,1.105553387E0
1.281421629E1,-1.860937777E-1,-1.230588049E0,1.910870075E-3,1.244580850E0
1.282417429E1,-4.642221451E-1,-1.308668844E0,-5.341902930E-2,1.389593442E0
1.283413329E1,-6.862099332E-1,-1.462796770E0,-7.542791247E-2,1.617512854E0
1.284409129E1,-8.998373723E-1,-1.783024213E0,-5.556725979E-2,1.997991582E0
1.285404929E1,-1.136606922E0,-2.012450244E0,1.131085396E-1,2.314006228E0
1.286400829E1,-1.273517137E0,-2.176240110E0,2.939898534E-1,2.538561985E0
1.287396629E1,-1.451064917E0,-2.419893587E0,3.279235117E-1,2.840599971E0
1.288392429E1,-1.627700239E0,-2.560146071E0,3.109900848E-1,3.049667327E0
1.289388329E1,-1.754780992E0,-2.650300781E0,3.553236373E-1,3.198375438E0
1.290384129E1,-1.929205189E0,-2.716912261E0,4.675691279E-1,3.364827750E0
1.291380029E1,-2.019589402E0,-2.824268310E0,6.077677079E-1,3.524856654E0
1.292375829E1,-2.080893658E0,-3.003728129E0,6.582783687E-1,3.712927619E0
1.293371629E1,-2.122200728E0,-3.172607996E0,6.135834217E-1,3.865961982E0
1.294367529E1,-2.083662022E0,-3.257984946E0,5.049538493E-1,3.900139962E0
1.295363329E1,-2.073876414E0,-3.283372387E0,3.539554985E-1,3.899587428E0
1.296359129E1,-2.126674725E0,-3.248999530E0,1.811864289E-1,3.887360525E0
1.297355029E1,-2.007538583E0,-3.232924365E0,-1.696639788E-1,3.809304002E0
1.298350829E1,-1.878364234E0,-3.207079672E0,-4.410648322E-1,3.742746372E0
1.299346629E1,-1.755901611E0,-3.131512595E0,-5.257559037E-1,3.628495676E0
1.300342529E1,-1.662872410E0,-3.147794752E0,-4.747867481E-1,3.591542692E0
1.301338329E1,-1.696385142E0,-3.286112977E0,-3.392953594E-1,3.713675052E0
1.302334229E1,-1.857293500E0,-3.478754759E0,-1.190410515E-1,3.945306654E0
1.303330029E1,-1.981318499E0,-3.739355806E0,9.952684633E-2,4.233002531E0
1.304325829E1,-2.073950674E0,-3.992932007E0,2.614198025E-1,4.507007624E0
1.305321729E1,-2.140064264E0,-4.106139364E0,3.333125614E-1,4.642343460E0
1.306317529E1,-2.169372556E0,-4.112135684E0,2.468180624E-1,4.655830358E0
1.307313329E1,-2.121122209E0,-4.020822641E0,-3.611386567E-3,4.546007828E0
1.308309229E1,-2.100291503E0,-3.922741445E0,-3.040331407E-1,4.459995627E0
1.309305029E1,-2.197706116E0,-3.909472944E0,-4.796867149E-1,4.510431267E0
1.310300929E1,-2.310931600E0,-3.842327027E0,-3.864926954E-1,4.500362035E0
1.311296729E1,-2.430796890E0,-3.739906613E0,-6.918089345E-2,4.460993274E0
1.312292529E1,-2.501092409E0,-3.602387702E0,2.708651023E-1,4.393862572E0
1.313288429E1,-2.472888656E0,-3.420835165E0,5.137993710E-1,4.252208994E0
1.314284229E1,-2.286056375E0,-3.208118137E0,5.450436024E-1,3.976826406E0
1.315280029E1,-1.980610401E0,-2.875910334E0,3.532794873E-1,3.509769822E0
1.316275929E1,-1.720680323E0,-2.502045797E0,2.751699686E-2,3.036730335E0
1.317271729E1,-1.494324080E0,-2.267428023E0,-2.508524951E-1,2.727115925E0
1.318267629E1,-1.287463331E0,-2.132508785E0,-3.419708991E-1,2.514378580E0
1.319263429E1,-1.129652243E0,-2.061770339E0,-3.100731683E-1,2.371319568E0
1.320259229E1,-1.047911677E0,-2.100783547E0,-1.923967838E-1,2.355509905E0
1.321255129E1,-1.120106371E0,-2.300217454E0,1.343127362E-1,2.561967707E0
1.322250929E1,-1.275119859E0,-2.496889138E0,6.516756928E-1,2.878379271E0
1.323246729E1,-1.365278954E0,-2.361452420E0,1.048879464E0,2.922429176E0
1.324242629E1,-1.239591007E0,-2.174712818E0,1.042783011E0,2.711707601E0
1.325238429E1,-1.000955904E0,-2.104878352E0,6.973752645E-1,2.432849740E0
1.326234329E1,-8.706293607E-1,-1.818075932E0,1.850328004E-1,2.024261030E0
1.327230129E1,-9.166641971E-1,-1.527644146E0,-3.692516685E-1,1.819427570E0
1.328225929E1,-9.600169158E-1,-1.544480034E0,-7.160347530E-1,1.954419817E0
1.329221829E1,-9.708997536E-1,-1.650091859E0,-5.966041307E-1,2.005339363E0
1.330217629E1,-1.206885191E0,-1.861428359E0,-9.082129240E-2,2.220300859E0
1.331213429E1,-1.612771128E0,-2.065697329E0,6.692173398E-1,2.704808314E0
1.332209329E1,-1.628829044E0,-1.870356472E0,1.354308701E0,2.825857293E0
1.333205129E1,-1.161848474E0,-1.467037171E0,1.366422962E0,2.317153782E0
1.334200929E1,-4.451514512E-1,-9.378284866E-1,7.724954673E-1,1.293998196E0
1.335196829E1,3.026793641E-1,-3.797456664E-1,-1.744749948E-1,5.160068724E-1
1.336192629E1,8.081302267E-1,1.315670300E-1,-1.160046655E0,1.419891752E0
1.337188529E1,9.893366092E-1,4.828291547E-1,-1.952943131E0,2.241851420E0
1.338184329E1,9.629288292E-1,4.947551358E-1,-2.210254533E0,2.461146009E0
1.339180129E1,6.831015533E-1,2.612249440E-1,-1.765964377E0,1.911412144E0
1.340176029E1,3.622151291E-1,1.308367127E-1,-6.469990897E-1,7.529447970E-1
1.341171829E1,2.716113532E-1,2.953358459E-1,8.657714939E-1,9.542307209E-1
1.342167629E1,6.496297520E-1,7.721961629E-1,1.891160281E0,2.143546812E0
1.343163529E1,1.449456933E0,1.555313755E0,2.134804401E0,3.012858461E0
1.344159329E1,2.290361388E0,2.311278048E0,1.630498424E0,3.639544835E0
1.345155279E1,3.049729929E0,2.753678384E0,6.478071749E-1,4.159717709E0
1.346151079E1,3.613168799E0,2.927175797E0,-3.517024201E-1,4.663372332E0
1.347146879E1,3.999124793E0,2.943647988E0,-9.995440936E-1,5.065288835E0
1.348142779E1,4.182503416E0,2.914042366E0,-1.060596042E0,5.206711217E0
1.349138579E1,4.329993584E0,3.052965193E0,-4.537544596E-1,5.317455596E0
1.350134379E1,4.516951287E0,3.368206131E0,4.734502208E-1,5.654362615E0
1.351130279E1,4.817390583E0,3.898546252E0,1.190615314E0,6.310584738E0
1.352126079E1,5.490986318E0,4.436094820E0,1.480340756E0,7.212577677E0
1.353121979E1,6.354957454E0,4.911513798E0,1.335770688E0,8.142035088E0
1.354117779E1,7.036921139E0,5.251206037E0,7.712658709E-1,8.814095246E0
1.355113579E1,7.529069586E0,5.342321445E0,5.092570346E-2,9.232003070E0
1.356109479E1,7.678806839E0,5.316355714E0,-3.275299575E-1,9.345319065E0
1.357105279E1,7.495867342E0,5.239278302E0,-1.230248326E-1,9.146212300E0
1.358101079E1,7.204664893E0,5.062077262E0,5.043749750E-1,8.819649457E0
1.359096979E1,7.001957129E0,4.931273879E0,1.163633922E0,8.642853094E0
1.360092779E1,6.855110739E0,4.751879548E0,1.412463353E0,8.459784585E0
1.361088579E1,6.631486316E0,4.425557553E0,1.205152076E0,8.063160791E0
1.362084479E1,6.183431137E0,4.003253512E0,7.841741111E-1,7.407819406E0
1.363080279E1,5.666760052E0,3.484598467E0,3.642680500E-1,6.662378493E0
1.364076179E1,5.107075095E0,2.978060022E0,1.984094757E-1,5.915270395E0
1.365071979E1,4.474865953E0,2.564878807E0,3.420165074E-1,5.169139569E0
1.366067779E1,3.858819684E0,2.192342758E0,6.484603089E-1,4.485237663E0
1.367063679E1,3.340203230E0,1.950748671E0,8.992444646E-1,3.971274179E0
1.368059479E1,2.955844696E0,1.751901823E0,8.791113317E-1,3.546690654E0
1.369055279E1,2.730347993E0,1.496795990E0,6.740091330E-1,3.185825908E0
1.370051179E1,2.615987565E0,1.246867282E0,5.805057228E-1,2.955512790E0
1.371046979E1,2.458361249E0,8.686810684E-1,6.178214836E-1,2.679524252E0
1.372042879E1,2.169698246E0,3.621402848E-1,7.883052421E-1,2.336698786E0
1.373038679E1,1.770553272E0,-3.863840103E-2,1.090716219E0,2.079907134E0
1.374034479E1,1.446636820E0,-1.614346075E-1,1.418567262E0,2.032523628E0
1.375030379E1,1.369011524E0,-1.258589780E-1,1.561377318E0,2.080368276E0
1.376026179E1,1.448937115E0,3.705965281E-2,1.429543655E0,2.035776816E0
1.377021979E1,1.511103250E0,3.757479250E-2,8.565820098E-1,1.737405433E0
1.378017879E1,1.467058806E0,-2.666657782E-1,6.164368629E-2,1.492371308E0
1.379013679E1,1.238917408E0,-6.629368454E-1,-4.371413505E-1,1.471561812E0
1.380009579E1,8.119034350E-1,-1.132189350E0,-6.175408173E-1,1.523941132E0
1.381005379E1,2.332407546E-1,-1.664081907E0,-5.589271216E-1,1.770866841E0
1.382001179E1,-2.902926224E-1,-2.225522783E0,-2.778912628E-1,2.261513877E0
1.382997079E1,-8.776460195E-1,-2.666358404E0,1.989455923E-1,2.814126689E0
1.383992879E1,-1.345608336E0,-2.926758306E0,7.126048493E-1,3.299148625E0
1.384988779E1,-1.616121874E0,-3.193222940E0,1.106636945E0,3.746087023E0
1.385984579E1,-1.833058545E0,-3.470250569E0,1.211826235E0,4.107464603E0
1.386980379E1,-1.993201795E0,-3.759652076E0,1.016772330E0,4.375118638E0
1.387976279E1,-2.187249540E0,-4.077294465E0,6.769415847E-1,4.676177992E0
1.388972079E1,-2.470736004E0,-4.354876994E0,4.158142892E-1,5.024180686E0
1.389967879E1,-2.768226841E0,-4.522284533E0,3.891357831E-1,5.316536833E0
1.390963779E1,-2.993694892E0,-4.714876029E0,4.848640589E-1,5.606010902E0
1.391959579E1,-3.135042560E0,-4.895642701E0,6.356790264E-1,5.848067812E0
1.392955379E1,-3.236104665E0,-4.947716249E0,8.513955295E-1,5.973034726E0
1.393951279E1,-3.174197270E0,-4.944614301E0,9.915603784E-1,5.958853151E0
1.394947079E1,-2.973054805E0,-4.901767659E0,9.503712027E-1,5.811160511E0
1.395942979E1,-2.769758812E0,-4.868297612E0,7.387735514E-1,5.649572716E0
1.396938779E1,-2.619089220E0,-4.838675618E0,4.016569376E-1,5.516678201E0
1.397934579E1,-2.476991647E0,-4.838971487E0,3.643641271E-2,5.436217461E0
1.398930479E1,-2.386315074E0,-4.895519325E0,-1.997711460E-1,5.449818125E0
1.399926279E1,-2.333513547E0,-5.011613452E0,-2.388530584E-1,5.533408141E0
1.400922079E1,-2.369410042E0,-5.092176390E0,-1.815078065E-2,5.616466307E0
1.401917979E1,-2.267981608E0,-5.103560334E0,2.996418817E-1,5.592839522E0
1.402913779E1,-2.250593012E0,-5.028237671E0,5.202140589E-1,5.533440670E0
1.403909679E1,-2.388841071E0,-4.980378796E0,5.581822228E-1,5.551783678E0
1.404905479E1,-2.380559221E0,-4.895786542E0,3.823823221E-1,5.457289099E0
1.405901279E1,-2.341885736E0,-4.775068436E0,1.153553322E-1,5.319681779E0
1.406897179E1,-2.248492108E0,-4.609610360E0,-5.929310560E-2,5.129107144E0
1.407892979E1,-2.101536814E0,-4.223736227E0,-6.352035016E-2,4.718097024E0
1.408888879E1,-2.011046328E0,-3.691792799E0,1.145633268E-1,4.205563715E0
1.409884679E1,-1.863171414E0,-3.307199206E0,3.312798500E-1,3.810343901E0
1.410880479E1,-1.630104029E0,-2.996022084E0,4.958649373E-1,3.446631618E0
1.411876379E1,-1.401544263E0,-2.660759110E0,5.448027702E-1,3.056268218E0
1.412872179E1,-1.323383654E0,-2.357634189E0,4.436517866E-1,2.739819368E0
1.413867979E1,-1.200770173E0,-2.266120586E0,2.684349994E-1,2.578605993E0
1.414863879E1,-9.914538860E-1,-2.243484260E0,4.374068141E-2,2.453184803E0
1.415859679E1,-7.666702518E-1,-2.032726049E0,-1.817210837E-1,2.180087388E0
1.416855579E1,-5.439021528E-1,-1.641810447E0,-3.027688265E-1,1.755858781E0
1.417851379E1,-4.821783596E-1,-1.171620634E0,-2.257915480E-1,1.286923736E0
1.418847179E1,-4.142076936E-1,-6.828776050E-1,9.892421767E-2,8.047830998E-1
1.419843079E1,-2.649882120E-1,-3.518328130E-1,5.842233825E-1,7.316570518E-1
1.420838879E1,-1.075615785E-1,-2.446890181E-1,9.129679529E-1,9.512900145E-1
1.421834679E1,3.143843204E-2,-1.490630686E-1,9.442808890E-1,9.564907584E-1
1.422830579E1,1.109333754E-1,-1.123296905E-1,6.988241315E-1,7.164351610E-1
1.423826379E1,3.539117905E-1,-1.528017783E-1,2.127451674E-1,4.402981322E-1
1.424822279E1,6.125695145E-1,-1.225365901E-1,-4.415091475E-1,7.649751325E-1
1.425818079E1,7.668836752E-1,-6.210912466E-3,-1.015180718E0,1.272297542E0
1.426813879E1,6.760474724E-1,3.019396913E-1,-1.262078229E0,1.463232455E0
1.427809779E1,5.127721614E-1,6.810228682E-1,-1.205232768E0,1.476249796E0
1.428805579E1,3.928878683E-1,9.509344357E-1,-8.415429711E-1,1.329222235E0
1.429801379E1,1.895006579E-1,1.123632535E0,-2.605612485E-1,1.168910919E0
1.430797279E1,1.819372845E-1,1.206554239E0,3.418937889E-1,1.267188096E0
1.431793079E1,5.046334219E-1,1.335635617E0,6.655300856E-1,1.575280193E0
1.432788979E1,1.041307831E0,1.437985865E0,5.969364353E-1,1.873087946E0
1.433784779E1,1.618285344E0,1.560271025E0,2.817024414E-1,2.265535123E0
1.434780579E1,2.067688306E0,1.716701000E0,-9.288652897E-2,2.689056556E0
1.435776479E1,2.305821426E0,1.943114546E0,-4.262409711E-1,3.045355144E0
1.436772279E1,2.279147598E0,2.240532585E0,-6.331996608E-1,3.258134719E0
1.437768079E1,2.046777493E0,2.365054890E0,-4.952767074E-1,3.166714663E0
1.438763979E1,1.776555439E0,2.276253811E0,4.847340634E-3,2.887473659E0
1.439759779E1,1.607648090E0,2.196990709E0,6.371827841E-1,2.795943929E0
1.440755679E1,1.623338508E0,2.138374711E0,1.149163232E0,2.920351084E0
1.441751479E1,1.895002486E0,2.137594108E0,1.226201468E0,3.108683489E0
1.442747279E1,2.544283159E0,2.171282841E0,-1.391732050E0,3.622811625E0
1.443743179E1,2.661583568E0,2.958892264E0,-3.890406343E0,5.565458834E0
1.444738913E1,2.895757538E0,2.375381073E0,-9.950476579E-1,3.875302156E0
1.445734713E1,2.510472804E0,2.294754986E0,-4.992113354E-1,3.437671611E0
1.446730612E1,2.010496690E0,2.213922492E0,2.670236643E-1,3.002474209E0
1.447726413E1,1.766197681E0,1.657604361E0,5.953851324E-1,2.494311513E0
1.448722313E1,1.608767247E0,1.393673910E0,7.389195856E-1,2.253100348E0
1.449718112E1,1.393325416E0,1.247445572E0,9.424489564E-1,2.094203000E0
1.450713913E1,1.272659351E0,1.043250276E0,1.238965940E0,2.059871249E0
1.451709812E1,1.348586615E0,8.810935378E-1,1.438632567E0,2.159785949E0
1.452705612E1,1.505299596E0,8.956671381E-1,1.164713391E0,2.103497987E0
1.453701513E1,1.615689180E0,8.881692535E-1,7.535108006E-1,1.991751661E0
1.454697312E1,1.632447885E0,8.171899027E-1,4.033561019E-1,1.869593961E0
1.455693113E1,1.503553033E0,7.328818238E-1,2.126006681E-1,1.686115813E0
1.456689013E1,1.335775951E0,6.093512070E-1,1.185476196E-1,1.472976518E0
1.457684812E1,1.227339336E0,4.781893891E-1,3.725558935E-1,1.368877216E0
1.458680613E1,1.078188559E0,3.282024604E-1,5.993968705E-1,1.276512449E0
1.459676513E1,8.851503360E-1,2.019581509E-1,8.072923207E-1,1.214907035E0
1.460672312E1,7.515601695E-1,1.042213565E-1,7.136491621E-1,1.041633288E0
1.461668213E1,5.898823178E-1,1.366143465E-2,3.997717953E-1,7.127168245E-1
1.462664013E1,3.014157808E-1,-7.121850193E-2,5.972112179E-2,3.154206086E-1
1.463659812E1,2.525897759E-1,-1.101358151E-1,-1.775144140E-1,3.277847767E-1
1.464655713E1,1.210964209E-1,-1.431755072E-1,-4.989814667E-1,5.330535368E-1
1.465651512E1,1.996561021E-1,-1.458897847E-1,-4.632141216E-1,5.250844797E-1
1.466647312E1,2.275958526E-1,-1.880780303E-1,-2.810581148E-2,2.965858295E-1
1.467643213E1,-8.738488376E-2,-2.703729129E-1,1.976939958E-2,2.848305796E-1
1.468639012E1,-2.373238653E-1,-3.529484618E-1,1.063327861E-1,4.384083657E-1
1.469634913E1,-2.743782556E-1,-3.457113630E-1,4.347521782E-2,4.434973148E-1
1.470630713E1,-2.968672317E-1,-3.034956354E-1,-1.458658111E-1,4.489059911E-1
1.471626512E1,-2.567728740E-1,-2.737631285E-1,-2.734380233E-1,4.643779839E-1
1.472622413E1,-2.148150086E-1,-2.560998595E-1,-3.246163630E-1,4.659489340E-1
1.473618213E1,-2.253364885E-1,-2.294885963E-1,-3.599662900E-1,4.827186332E-1
1.474614012E1,-2.581621724E-1,-2.442516464E-1,-3.956401892E-1,5.318249086E-1
1.475609913E1,-2.907908052E-1,-2.650437605E-1,-3.879346554E-1,5.525403010E-1
1.476605713E1,-3.620876598E-1,-2.536978233E-1,-2.671441535E-1,5.165617656E-1
1.477601612E1,-4.226244682E-1,-2.386237013E-1,-8.053600352E-2,4.919743488E-1
1.478597413E1,-4.563424373E-1,-2.109932685E-1,4.639060300E-2,5.048947093E-1
1.479593213E1,-4.101085031E-1,-2.063271904E-1,-2.847243190E-2,4.599680132E-1
1.480589112E1,-3.478210384E-1,-1.956992912E-1,-2.102740244E-1,4.511018207E-1
1.481584913E1,-2.390599036E-1,-1.891299444E-1,-3.262857797E-1,4.465223213E-1
1.482580812E1,-1.298830318E-1,-1.739710379E-1,-2.842430931E-1,3.576725597E-1
1.483576613E1,-6.130162418E-2,-1.631361473E-1,-1.360202328E-1,2.210719236E-1
1.484572413E1,-4.153745055E-2,-2.045320952E-1,4.348870296E-2,2.131900679E-1
1.485568312E1,-3.296543241E-2,-2.900616574E-1,1.978399934E-1,3.526515955E-1
1.486564113E1,-8.630841136E-2,-3.091007763E-1,3.467106521E-1,4.724412218E-1
1.487559913E1,-1.181283742E-1,-2.682492042E-1,3.465761662E-1,4.539019578E-1
1.488555812E1,-8.258724332E-2,-2.057910007E-1,1.519427492E-1,2.688069712E-1
1.489551613E1,4.545040727E-3,-1.136798126E-1,-1.201345905E-1,1.654571757E-1
1.490547513E1,1.603008324E-1,-3.367996216E-3,-3.544687378E-1,3.890447100E-1
1.491543312E1,2.524816024E-1,4.152107835E-2,-4.303632581E-1,5.006830269E-1
1.492539113E1,2.783151859E-1,4.983231068E-2,-3.034658877E-1,4.147699927E-1
1.493535012E1,2.586743885E-1,1.871635258E-2,-3.139958460E-2,2.612444737E-1
1.494530812E1,2.697115928E-1,-4.794366002E-2,1.070180432E-1,2.941016821E-1
1.495526613E1,2.322671932E-1,-3.176909208E-2,1.713912098E-1,2.904001912E-1
1.496522512E1,1.670613831E-1,-5.750561178E-2,2.081725351E-1,2.730424976E-1
1.497518313E1,9.756079316E-2,-7.927187204E-2,1.136137390E-1,1.694409034E-1
1.498514213E1,1.203491467E-1,-1.127343178E-2,7.641689591E-3,1.211173101E-1
1.499510012E1,2.295909226E-1,7.637983918E-2,-8.259773176E-2,2.556721668E-1
1.500505813E1,2.727971685E-1,1.216127300E-1,-1.938328600E-1,3.560605691E-1
1.501501713E1,2.952434599E-1,1.158953226E-1,-2.585720623E-1,4.092186919E-1
1.502497512E1,2.445241266E-1,7.724464238E-2,-1.867630281E-1,3.172368389E-1
1.503493313E1,1.680068779E-1,7.029522657E-3,2.362275124E-2,1.698050635E-1
1.504489213E1,9.196266890E-2,-5.340846777E-2,2.427974073E-1,2.650663651E-1
1.505485012E1,4.280746579E-2,-1.191381884E-1,3.885778856E-1,4.086797772E-1
1.506480913E1,1.805210888E-2,-1.483134556E-1,4.115638751E-1,4.378442452E-1
1.507476712E1,2.611951232E-3,-1.654808807E-1,4.093758470E-1,4.415646366E-1
1.508472512E1,-2.540615201E-3,-1.424299872E-1,3.636524113E-1,3.905583595E-1
1.509468413E1,-2.736730814E-2,-1.311682498E-1,2.402714467E-1,2.751080650E-1
1.510464212E1,-7.345389247E-2,-1.401320314E-1,-3.197515527E-1,3.567541395E-1
1.511460113E1,4.404649079E-2,-2.046993256E-2,-9.886133087E-1,9.898057312E-1
1.512455913E1,1.254654604E-1,-5.524566293E-2,-9.141478479E-2,1.647735656E-1
1.513451712E1,2.073130310E-2,-1.230920756E-1,1.809303939E-1,2.198118592E-1
1.514447613E1,2.133812714E-1,-1.217741132E-1,3.279895852E-1,4.098019883E-1
1.515443413E1,2.020359188E-1,-5.105320930E-2,2.928285233E-1,3.594071323E-1
1.516439212E1,1.550611424E-1,-5.247642159E-2,1.359161524E-1,2.127696717E-1
1.517435113E1,1.086968154E-1,-1.133500296E-1,-7.847902615E-2,1.755624801E-1
1.518430913E1,-1.034781754E-2,-8.227324784E-2,-7.366969127E-2,1.109197370E-1
1.519426812E1,6.864163399E-2,-2.022493422E-2,4.324483752E-2,8.361123042E-2
1.520422613E1,1.618439126E-1,5.064390421E-2,1.346777487E-1,2.165556581E-1
1.521418412E1,1.902976334E-1,4.714083731E-2,4.157136440E-2,2.004086479E-1