"Time (s)","Linear Acceleration x (m/s^2)","Linear Acceleration y (m/s^2)","Linear Acceleration z (m/s^2)","Absolute acceleration (m/s^2)"
6.418666657E-3,2.770036554E-1,3.912746215E-1,-6.914215565E-1,8.413623615E-1
1.635466666E-2,5.236354110E-1,6.593174189E-1,-9.247874415E-1,1.250649957E0
2.629066666E-2,6.045868957E-1,7.303675210E-1,-1.376714646E0,1.671617554E0
3.622666666E-2,3.669206759E-1,5.735533834E-1,-1.877884762E0,1.997509811E0
4.616266667E-2,2.811920160E-1,2.865480655E-1,-2.337275938E0,2.371505335E0
5.609966666E-2,1.741198495E-1,7.275398076E-2,-2.751434222E0,2.757897958E0
6.603566666E-2,-1.558575332E-3,-7.585592866E-3,-3.138835648E0,3.138845201E0
7.597166667E-2,-2.093693505E-1,-6.601974249E-2,-3.303466344E0,3.310752787E0
8.590766667E-2,-3.391987342E-1,-1.742055112E-1,-3.418177605E0,3.439380974E0
9.584366667E-2,-3.947183391E-1,-1.913589031E-1,-3.409475194E0,3.437577911E0
1.057806667E-1,-4.089226878E-1,-1.148679668E-1,-3.159828907E0,3.188248913E0
1.157166667E-1,-5.992518961E-2,-1.117791751E-1,-2.877916514E0,2.880709821E0
1.256526667E-1,4.120205426E-1,3.347560197E-2,-2.698098845E0,2.729582188E0
1.355886667E-1,8.430939451E-1,2.612758148E-1,-2.560868202E0,2.708711575E0
1.455246667E-1,1.006461057E0,6.163842380E-2,-1.989825613E0,2.230732867E0
1.554616667E-1,1.325008595E0,-7.862750888E-2,-1.244608503E0,1.819582476E0
1.653976667E-1,2.583784317E0,-8.019877267E-1,-4.486714751E-1,2.742340570E0
1.753336667E-1,2.896624973E0,-1.833839002E0,4.056242734E-1,3.452235909E0
1.852696667E-1,2.983316669E0,-2.634790456E0,3.782505333E-1,3.998171152E0
1.952056667E-1,2.607721941E0,-3.052168803E0,-1.344321656E-1,4.016717581E0
2.051426667E-1,1.435830727E0,-2.615116915E0,8.736909628E-3,2.983374379E0
2.150786667E-1,-3.023120128E-1,-1.709379263E0,6.420652092E-1,1.850842444E0
2.250146667E-1,-1.514819448E0,-1.496469716E0,3.306705701E-1,2.154864867E0
2.349506667E-1,-2.208373338E0,-8.490423907E-1,4.853949130E-1,2.415242017E0
2.448866667E-1,-1.572883761E0,-2.340001252E-1,8.610311562E-1,1.808340133E0
2.548236667E-1,3.183467592E-1,3.895695003E-1,1.132734895E0,1.239434306E0
2.647596667E-1,2.478211084E0,1.573640683E0,1.754682174E0,3.420056244E0
2.746956667E-1,3.118339111E0,2.159724065E0,1.297324660E0,4.008927303E0
2.846316667E-1,2.137883399E0,2.138865731E0,-6.627666914E-1,3.095892720E0
2.945676667E-1,1.390983899E0,1.621546775E0,-1.653501370E0,2.701539733E0
3.045046667E-1,5.995986360E-1,8.295949899E-1,-2.317458555E0,2.533448346E0
3.144406667E-1,-3.495455284E-1,8.584257831E-1,-2.196826987E0,2.384350166E0
3.243766667E-1,-4.484811482E-1,7.643352393E-1,-1.776917381E0,1.985643240E0
3.343126667E-1,3.438192040E-2,-4.670719318E-3,-1.051667928E0,1.052240164E0
3.442486667E-1,1.697563648E-1,-3.029543294E-1,1.817045653E-1,3.919376202E-1
3.541846667E-1,7.449060380E-2,2.669379660E-1,2.072260244E0,2.090709747E0
3.641216667E-1,3.038534850E-1,9.061975349E-1,3.357714472E0,3.491098307E0
3.740576667E-1,1.133845282E0,1.207387028E0,3.774826185E0,4.122220432E0
3.839936667E-1,1.553864815E0,1.316633921E0,3.126471126E0,3.731332530E0
3.939296667E-1,5.222136605E-1,9.347300470E-1,1.508969893E0,1.850247958E0
4.038666667E-1,1.520042181E-1,6.495572466E-1,6.746248448E-1,9.487616034E-1
4.138028333E-1,1.377750773E0,7.127451825E-1,1.447492268E0,2.121658963E0
4.237388333E-1,3.202145791E0,2.216110227E0,3.152339793E0,5.010202429E0
4.336748333E-1,4.893869240E0,4.641668889E0,4.840261967E0,8.301998683E0
4.436108333E-1,5.308511674E0,4.410166219E0,4.896248472E0,8.461862170E0
4.535468333E-1,4.804823163E0,2.918919529E0,3.550905892E0,6.649462346E0
4.634838333E-1,5.442084299E0,3.015119967E0,4.302708721E0,7.564425443E0
4.734198333E-1,6.296238545E0,3.662550581E0,5.427745172E0,9.083904130E0
4.833558333E-1,7.177232096E0,3.599634833E0,6.392658547E0,1.026333838E1
4.932918333E-1,7.656026672E0,3.207110954E0,7.090250670E0,1.091659103E1
5.032278333E-1,8.187855493E0,3.153958302E0,7.634360983E0,1.163064479E1
5.131648333E-1,8.628712749E0,3.273696122E0,8.456182466E0,1.251713993E1
5.231008333E-1,9.434883574E0,3.171490009E0,9.681706241E0,1.388563332E1
5.330368333E-1,1.117296024E1,2.695480169E0,1.073782215E1,1.572900119E1
5.429728333E-1,1.306206347E1,2.087375881E0,1.193491559E1,1.781619629E1
5.529088333E-1,1.455584230E1,1.376079931E0,1.296443953E1,1.954079920E1
5.628458333E-1,1.600747323E1,2.187454339E-1,1.326517820E1,2.079067102E1
5.727818333E-1,1.721892041E1,-1.337762981E0,1.277998326E1,2.148508325E1
5.827178333E-1,1.681128645E1,-3.177110937E0,1.161486006E1,2.067893518E1
5.926538333E-1,1.465658632E1,-4.783459483E0,1.012151392E1,1.844294041E1
6.025898333E-1,1.306910703E1,-6.462751459E0,8.196737999E0,1.672588499E1
6.125268333E-1,1.254812713E1,-8.241759805E0,6.475303093E0,1.634966817E1
6.224628333E-1,1.228460364E1,-9.828107657E0,5.635725955E0,1.671121162E1
6.323988333E-1,1.234304890E1,-1.103418710E1,5.411654220E0,1.741809814E1
6.423348333E-1,1.226541425E1,-1.147837552E1,4.968002579E0,1.751783494E1
6.522708333E-1,1.189410203E1,-1.201759288E1,4.431274960E0,1.747937068E1
6.622078333E-1,1.141560917E1,-1.329355591E1,3.835371764E0,1.793724722E1
6.721438333E-1,1.073959034E1,-1.463401139E1,3.297876990E0,1.844909436E1
6.820798333E-1,9.910644615E0,-1.596655792E1,2.569063075E0,1.896712771E1
6.920158333E-1,8.895884897E0,-1.686183329E1,1.776669459E0,1.914718633E1
7.019518333E-1,7.432404587E0,-1.754180366E1,1.010210292E0,1.907815606E1
7.118888333E-1,5.871712562E0,-1.828089406E1,6.105475473E-1,1.921043634E1
7.218248333E-1,4.203299038E0,-1.915817872E1,1.067458773E0,1.964288683E1
7.317608333E-1,2.314737260E0,-1.989535474E1,1.802984269E0,2.011054204E1
7.416968333E-1,2.828803447E-1,-2.015162183E1,2.242572679E0,2.027799339E1
7.516328333E-1,-1.559862597E0,-1.970572252E1,2.357773352E0,1.990748017E1
7.615698333E-1,-3.001336618E0,-1.875936470E1,2.209614848E0,1.912600803E1
7.715058333E-1,-4.104177039E0,-1.773089560E1,2.125742971E0,1.832341974E1
7.814418333E-1,-5.062547379E0,-1.667180112E1,1.923334000E0,1.752933405E1
7.913778333E-1,-6.300732130E0,-1.571138894E1,1.526177664E0,1.699635802E1
8.013138333E-1,-7.383133024E0,-1.511207389E1,1.196660750E0,1.686171484E1
8.112508333E-1,-8.058609223E0,-1.457691449E1,1.273268046E0,1.670475472E1
8.211868333E-1,-8.362329977E0,-1.394918783E1,1.653668600E0,1.634756935E1
8.311228333E-1,-8.451494168E0,-1.332908125E1,2.177289686E0,1.593212952E1
8.410588333E-1,-8.426556963E0,-1.286341134E1,2.649730677E0,1.560433549E1
8.509948333E-1,-8.514196200E0,-1.246229351E1,3.039525953E0,1.539607140E1
8.609318333E-1,-8.783586781E0,-1.202416047E1,3.472180150E0,1.529012318E1
8.708678333E-1,-8.984073772E0,-1.187485065E1,3.803313235E0,1.536850192E1
8.808038333E-1,-9.018083518E0,-1.190299213E1,3.829530981E0,1.541662608E1
8.907398333E-1,-8.805718492E0,-1.200407061E1,3.523516365E0,1.529880900E1
9.006758333E-1,-8.463910146E0,-1.206473664E1,3.050660806E0,1.504998925E1
9.106128333E-1,-8.150692345E0,-1.212230014E1,2.784085075E0,1.487061115E1
9.205488333E-1,-7.757054279E0,-1.230581500E1,2.565606201E0,1.477116479E1
9.304848333E-1,-7.095240099E0,-1.254615194E1,2.303866117E0,1.459644339E1
9.404208333E-1,-6.263945543E0,-1.276104764E1,2.068299340E0,1.436520841E1
9.503568333E-1,-5.604693612E0,-1.312252719E1,1.722739420E0,1.437293086E1
9.602938333E-1,-5.056834649E0,-1.371372747E1,1.337293303E0,1.467740615E1
9.702298333E-1,-4.601465188E0,-1.427278677E1,1.111759032E0,1.503735124E1
9.801658333E-1,-4.127063041E0,-1.463499372E1,1.134605420E0,1.524804971E1
9.901018333E-1,-3.703148092E0,-1.503658751E1,1.337802011E0,1.554355120E1
1.000037833E0,-3.302488397E0,-1.564115335E1,1.534814733E0,1.605950697E1
1.009974833E0,-2.903211276E0,-1.639288777E1,1.608802915E0,1.672553891E1
1.019910833E0,-2.475957860E0,-1.712823478E1,1.453839128E0,1.736722321E1
1.029846833E0,-1.813896050E0,-1.780112885E1,1.198273485E0,1.793338413E1
1.039782833E0,-1.164658354E0,-1.840836219E1,7.014518702E-1,1.845850109E1
1.049718833E0,-7.039363521E-1,-1.904705940E1,7.319899041E-2,1.906020347E1
1.059654833E0,2.192705870E-3,-1.981953974E1,-3.547476500E-1,1.982271440E1
1.069591833E0,6.424803615E-1,-2.063860134E1,-6.049997091E-1,2.065746042E1
1.079527833E0,1.701609921E0,-2.145111639E1,-6.700465480E-1,2.152893015E1
1.089463833E0,3.555340421E0,-2.207387527E1,-7.253168423E-1,2.237012515E1
1.099399833E0,6.103580976E0,-2.199012209E1,-1.044869370E0,2.284536982E1
1.109335833E0,8.633978167E0,-2.109845678E1,-8.021991035E-1,2.281083035E1
1.119272833E0,1.114202262E1,-1.972392373E1,8.804199386E-1,2.267053098E1
1.129208833E0,1.463426515E1,-1.750277350E1,3.677566524E0,2.310916035E1
1.139144833E0,1.767122593E1,-1.429622826E1,6.080789698E0,2.352935128E1
1.149080833E0,1.960817225E1,-1.123656041E1,6.766338311E0,2.359076181E1
1.159016833E0,2.105496285E1,-9.251243581E0,5.836558517E0,2.372682836E1
1.168953833E0,2.245795313E1,-7.830459639E0,5.125362847E0,2.432992194E1
1.178889833E0,2.397862214E1,-5.945436012E0,6.535944566E0,2.555466885E1
1.188825833E0,2.456818987E1,-4.403982204E0,1.000333702E1,2.688973344E1
1.198761833E0,2.345014377E1,-2.959335483E0,1.312310139E1,2.703484232E1
1.208697833E0,2.133427265E1,-1.261853988E0,1.504411521E1,2.613558623E1
1.218634833E0,1.935622976E1,2.164566144E-1,1.563701937E1,2.488426931E1
1.228570833E0,1.803433335E1,1.225647737E0,1.473900516E1,2.332332877E1
1.238506833E0,1.776266586E1,1.627036580E0,1.291048610E1,2.201908713E1
1.248442833E0,1.824043250E1,2.077940814E0,1.127841945E1,2.154608923E1
1.258378833E0,1.858806701E1,3.072704224E0,1.069883876E1,2.166616942E1
1.268315833E0,1.910181741E1,3.995435784E0,1.111872147E1,2.246038518E1
1.278251833E0,1.931621142E1,4.973320622E0,1.233302444E1,2.345108597E1
1.288187833E0,1.908776304E1,5.576108914E0,1.296879921E1,2.374079699E1
1.298123833E0,1.863327768E1,5.157527211E0,1.213694391E1,2.282771411E1
1.308059833E0,1.772165466E1,4.041096107E0,1.043997200E1,2.096140541E1
1.317996833E0,1.647359221E1,3.075478435E0,8.745687468E0,1.890303830E1
1.327932833E0,1.537110788E1,1.975005260E0,7.462065758E0,1.720040781E1
1.337868833E0,1.448504187E1,6.702987823E-1,6.947718356E0,1.607907114E1
1.347804833E0,1.378498047E1,-4.950469118E-1,6.807926048E0,1.538241252E1
1.357740833E0,1.342485864E1,-1.517518815E0,6.789140114E0,1.512025517E1
1.367677833E0,1.337242315E1,-2.717568026E0,6.771708394E0,1.523361124E1
1.377613833E0,1.394106488E1,-4.367375418E0,6.818365082E0,1.612195274E1
1.387549833E0,1.460543604E1,-5.856839000E0,7.387548841E0,1.738382015E1
1.397485833E0,1.490210038E1,-6.680649705E0,8.050288635E0,1.820743868E1
1.407421833E0,1.525560783E1,-7.836881636E0,7.943002753E0,1.890083535E1
1.417358792E0,1.522403521E1,-9.565401614E0,7.290751694E0,1.940162922E1
1.427294792E0,1.495938672E1,-1.133826454E1,6.238387363E0,1.978021664E1
1.437230792E0,1.446957365E1,-1.281936894E1,5.194610837E0,2.001721168E1
1.447166792E0,1.415499111E1,-1.431369273E1,4.262779255E0,2.057709551E1
1.457102792E0,1.366669948E1,-1.569253400E1,3.709291762E0,2.113748196E1
1.467039792E0,1.296214625E1,-1.663300134E1,3.042791038E0,2.130569281E1
1.476975792E0,1.205202363E1,-1.758028770E1,2.135463967E0,2.142143775E1
1.486911792E0,1.071571967E1,-1.878188233E1,9.518249667E-1,2.164466961E1
1.496847792E0,9.083149579E0,-1.990505878E1,-8.067081839E-2,2.187970473E1
1.506783792E0,7.439587891E0,-2.058065075E1,-8.760906601E-1,2.190155675E1
1.516720792E0,5.292333013E0,-2.113664378E1,-1.205659907E0,2.182246812E1
1.526656792E0,2.967705480E0,-2.164143858E1,-1.055276537E0,2.186944783E1
1.536592792E0,9.790022403E-1,-2.174988105E1,-4.890026450E-1,2.177739412E1
1.546528792E0,-6.790985495E-1,-2.146853174E1,2.149489099E-1,2.148034527E1
1.556464792E0,-2.195134657E0,-2.111507223E1,3.999001417E-1,2.123263553E1
1.566401792E0,-3.555050399E0,-2.074307237E1,3.714657167E-1,2.104878670E1
1.576337792E0,-5.030317526E0,-2.002371516E1,2.168678199E-1,2.064704082E1
1.586273792E0,-6.408199861E0,-1.904853875E1,-1.228880809E-1,2.009793411E1
1.596209792E0,-7.325688223E0,-1.798243814E1,-7.517127818E-1,1.943190319E1
1.606145792E0,-7.820016512E0,-1.677364793E1,-1.515598297E0,1.856892461E1
1.616082792E0,-7.814745247E0,-1.555709729E1,-1.836263112E0,1.750615268E1
1.626018792E0,-7.447253591E0,-1.448662881E1,-1.309323147E0,1.634130739E1
1.635954792E0,-7.250452684E0,-1.350959649E1,-3.203619289E-1,1.533560867E1
1.645890792E0,-7.556057995E0,-1.276693696E1,6.680613452E-1,1.485042079E1
1.655826792E0,-8.179312127E0,-1.235865863E1,1.275413389E0,1.487495443E1
1.665762792E0,-9.048230592E0,-1.213996107E1,1.387229694E0,1.520439206E1
1.675699792E0,-9.852781738E0,-1.204358726E1,1.091797954E0,1.559863215E1
1.685635792E0,-1.063877382E1,-1.203228343E1,6.530556357E-1,1.607438442E1
1.695571792E0,-1.136094589E1,-1.211660729E1,2.900312702E-1,1.661226600E1
1.705507792E0,-1.177668993E1,-1.216757045E1,1.829032445E-1,1.693439252E1
1.715444792E0,-1.170335416E1,-1.226961138E1,1.382036197E-1,1.695673796E1
1.725380792E0,-1.131022480E1,-1.231318834E1,1.618544010E-1,1.672010733E1
1.735316792E0,-1.088620577E1,-1.229391124E1,1.140920413E-1,1.642141123E1
1.745252792E0,-1.029481253E1,-1.236657810E1,1.311869975E-1,1.609138369E1
1.755188792E0,-9.608902559E0,-1.255356153E1,5.486559391E-2,1.580904569E1
1.765124792E0,-8.886676117E0,-1.287702132E1,-1.372002375E-1,1.564638982E1
1.775061792E0,-8.125160478E0,-1.321771518E1,-3.122857912E-1,1.551849702E1
1.784997792E0,-7.311304073E0,-1.358356728E1,-4.374138308E-1,1.543242684E1
1.794933792E0,-6.550857305E0,-1.398711521E1,-4.741857275E-1,1.545244237E1
1.804869792E0,-6.004963006E0,-1.436740174E1,-4.202908444E-1,1.557749845E1
1.814805792E0,-5.539384307E0,-1.481429508E1,-3.428982675E-1,1.581978813E1
1.824742792E0,-5.000187993E0,-1.547539882E1,-1.719531637E-1,1.626405289E1
1.834678792E0,-4.473001276E0,-1.608273625E1,-9.462373674E-2,1.669344480E1
1.844614792E0,-3.776136546E0,-1.656742949E1,-1.223132265E-1,1.699275986E1
1.854550792E0,-2.943546832E0,-1.715572371E1,-2.558345421E-1,1.740829616E1
1.864486792E0,-1.810490339E0,-1.767283860E1,-6.483504543E-1,1.777716112E1
1.874423792E0,6.970407307E-2,-1.775091881E1,-1.234120352E0,1.779390430E1
1.884359792E0,2.374878797E0,-1.750110003E1,-1.988423158E0,1.777308015E1
1.894295792E0,4.443004475E0,-1.699510303E1,-2.496190980E0,1.774273894E1
1.904231792E0,5.904107891E0,-1.660769459E1,-2.698633865E0,1.783133855E1
1.914167792E0,6.770869904E0,-1.689770713E1,-1.969064489E0,1.830995359E1
1.924104792E0,7.211175182E0,-1.734555707E1,-9.448466071E-1,1.880856541E1
1.934040792E0,7.522900774E0,-1.769537377E1,2.228514218E-1,1.922940331E1
1.943976792E0,8.438733789E0,-1.714175120E1,3.045713477E0,1.934756400E1
1.953912792E0,9.889697549E0,-1.542491981E1,7.922072060E0,1.996230183E1
1.963848792E0,1.199989219E1,-1.315745612E1,1.231414261E1,2.165073145E1
1.973785792E0,1.437686254E1,-1.036779397E1,1.373041542E1,2.242118721E1
1.983721792E0,1.636725240E1,-8.117308252E0,1.206861101E1,2.189586756E1
1.993657792E0,1.671137859E1,-6.285453941E0,8.419273086E0,1.973983953E1
2.003593792E0,1.613834327E1,-4.533361206E0,4.503122038E0,1.735729228E1
2.013529792E0,1.477334820E1,-3.273714249E0,2.482494462E0,1.533400798E1
2.023466792E0,1.455121949E1,-2.923287106E0,2.533034578E0,1.505655539E1
2.033402792E0,1.577533175E1,-2.494302914E0,5.329532415E0,1.683705896E1
2.043338792E0,1.605347912E1,-6.505170670E-1,9.374290048E0,1.860146978E1
2.053274792E0,1.602649305E1,1.410250475E0,1.209383823E1,2.012705167E1
2.063210792E0,1.637825686E1,2.576815605E0,1.280243657E1,2.094730672E1
2.073147792E0,1.729573763E1,3.198951750E0,1.151334304E1,2.102220017E1
2.083083792E0,1.871753138E1,3.958029392E0,8.433541462E0,2.090781192E1
2.093019792E0,2.012077192E1,5.040966475E0,5.136086056E0,2.136904737E1
2.102955792E0,2.115662488E1,5.636419435E0,3.114126484E0,2.211492221E1
2.112891792E0,2.157742561E1,5.765906026E0,3.420838088E0,2.259497956E1
2.122828792E0,2.122861113E1,5.788341792E0,5.708842463E0,2.273212954E1
2.132764792E0,2.041790169E1,5.581813458E0,8.357652204E0,2.275736587E1
2.142700792E0,1.902289169E1,4.616985453E0,9.840527143E0,2.190942577E1
2.152636792E0,1.713604783E1,3.287728855E0,9.862071794E0,2.004279811E1
2.162572792E0,1.534666769E1,2.017881723E0,8.633143770E0,1.772352186E1
2.172508792E0,1.411407229E1,8.039018127E-1,6.927151945E0,1.574289455E1
2.182445792E0,1.356019830E1,-3.111826774E-1,5.485945433E0,1.463117937E1
2.192381792E0,1.342514165E1,-1.146897436E0,4.671137102E0,1.426076169E1
2.202317792E0,1.326957999E1,-1.833677473E0,4.404711059E0,1.410126255E1
2.212253792E0,1.303191523E1,-2.596008506E0,4.576191768E0,1.405388223E1
2.222189792E0,1.266503870E1,-3.551191821E0,4.930255879E0,1.404712040E1
2.232126792E0,1.250246154E1,-4.640801747E0,5.198126768E0,1.431324937E1
2.242062792E0,1.289238195E1,-6.264418582E0,4.740893800E0,1.509743444E1
2.251998792E0,1.307274750E1,-7.794246079E0,4.152775002E0,1.577632845E1
2.261934792E0,1.321088330E1,-9.015187392E0,3.704140365E0,1.641711598E1
2.271870792E0,1.317651687E1,-1.057346276E1,3.436420333E0,1.724029281E1
2.281807792E0,1.277942544E1,-1.199932501E1,3.417556046E0,1.785993294E1
2.291743792E0,1.280486550E1,-1.344898659E1,3.550670249E0,1.890627092E1
2.301679792E0,1.313333518E1,-1.512013603E1,3.530793225E0,2.033640842E1
2.311615792E0,1.273326401E1,-1.597291267E1,3.641401495E0,2.074921098E1
2.321551792E0,1.174334677E1,-1.620217030E1,3.716799294E0,2.035266845E1
2.331488792E0,1.080124105E1,-1.708313637E1,3.103973671E0,2.044834979E1
2.341424792E0,9.191213726E0,-1.805836657E1,2.186727969E0,2.038050030E1
2.351360792E0,6.879093679E0,-1.912910052E1,1.391857181E0,2.037600753E1
2.361296792E0,4.772802055E0,-2.048746485E1,6.091152719E-1,2.104487768E1
2.371232792E0,2.987062103E0,-2.146453458E1,-2.862811401E-1,2.167327252E1
2.381169792E0,1.229002869E0,-2.145118890E1,-8.755012608E-1,2.150419623E1
2.391105792E0,-1.647356531E-1,-2.083213716E1,-1.216227288E0,2.086826024E1
2.401041792E0,-1.397438348E0,-1.982410993E1,-1.490192437E0,1.992909536E1
2.410977792E0,-2.373112792E0,-1.899313404E1,-1.774923773E0,1.922293317E1
2.420914333E0,-3.064228100E0,-1.826139593E1,-1.802900069E0,1.860426091E1
2.430851333E0,-3.529696872E0,-1.737621285E1,-1.675736577E0,1.781009900E1
2.440787333E0,-3.933894717E0,-1.659857761E1,-1.711647252E0,1.714403811E1
2.450723333E0,-4.463789864E0,-1.581819652E1,-2.008689315E0,1.655824851E1
2.460659333E0,-5.381672621E0,-1.499669546E1,-2.658925424E0,1.615342562E1
2.470595333E0,-6.506197441E0,-1.437504054E1,-2.967147948E0,1.605541537E1
2.480532333E0,-7.740719497E0,-1.394275238E1,-2.899203302E0,1.620877732E1
2.490468333E0,-8.868096004E0,-1.343939482E1,-2.887928701E0,1.635850214E1
2.500404333E0,-9.375251330E0,-1.274386618E1,-2.642904053E0,1.604014977E1
2.510340333E0,-9.269942976E0,-1.190864990E1,-2.374670782E0,1.527700385E1
2.520276333E0,-9.138218071E0,-1.106738993E1,-1.814417914E0,1.446672948E1
2.530213333E0,-9.380047216E0,-1.049604212E1,-9.316579199E-1,1.410745095E1
2.540149333E0,-1.013986015E1,-1.012587361E1,-4.061692339E-1,1.433579623E1
2.550085333E0,-1.115187752E1,-9.824288256E0,-3.349596490E-1,1.486584037E1
2.560021333E0,-1.211314691E1,-9.734895439E0,-6.932156284E-1,1.555561201E1
2.569957333E0,-1.276450919E1,-9.809943867E0,-1.346682031E0,1.615491399E1
2.579893333E0,-1.307620204E1,-9.883062129E0,-1.952773561E0,1.650682590E1
2.589830333E0,-1.299986430E1,-1.004456456E1,-2.483025974E0,1.661490798E1
2.599766333E0,-1.254446092E1,-1.026729436E1,-2.851080133E0,1.645932840E1
2.609702333E0,-1.188807121E1,-1.047756609E1,-3.134421000E0,1.615333474E1
2.619638333E0,-1.098228839E1,-1.072014017E1,-3.148940222E0,1.566677656E1
2.629574333E0,-9.985484297E0,-1.103234406E1,-2.948746760E0,1.516962819E1
2.639511333E0,-9.099229422E0,-1.144145386E1,-2.619581848E0,1.485143264E1
2.649447333E0,-8.336769458E0,-1.197541224E1,-2.287924268E0,1.476979420E1
2.659383333E0,-7.768662171E0,-1.260187006E1,-2.140602500E0,1.495798850E1
2.669319333E0,-7.271956404E0,-1.334025411E1,-2.212898206E0,1.535384799E1
2.679255333E0,-6.808127777E0,-1.410613294E1,-2.430727308E0,1.585061594E1
2.689192333E0,-6.228924229E0,-1.480904896E1,-2.767717841E0,1.630238296E1
2.699128333E0,-5.486756442E0,-1.546904757E1,-3.137350456E0,1.671044275E1
2.709064333E0,-4.621504766E0,-1.611411007E1,-3.490929247E0,1.712335938E1
2.719000333E0,-3.643083154E0,-1.668639344E1,-3.681171332E0,1.747165714E1
2.728936333E0,-2.743922305E0,-1.730946104E1,-3.532561423E0,1.787807432E1
2.738873333E0,-1.860654187E0,-1.799397353E1,-3.273730913E0,1.838375455E1
2.748809333E0,-8.621269244E-1,-1.876290811E1,-2.971512602E0,1.901630539E1
2.758745333E0,4.810106707E-1,-1.942942404E1,-2.372548097E0,1.957965460E1
2.768681333E0,2.172069291E0,-1.998261859E1,-1.651890462E0,2.016808550E1
2.778617333E0,4.554017372E0,-1.963346263E1,-4.402628866E-1,2.015950794E1
2.788554333E0,7.205689909E0,-1.846638177E1,7.263709491E-1,1.983574646E1
2.798490333E0,1.023424824E1,-1.713184017E1,1.686220050E0,2.002705976E1
2.808426333E0,1.313885262E1,-1.520376408E1,2.543653122E0,2.025472936E1
2.818362333E0,1.530894145E1,-1.294156990E1,2.932362278E0,2.025948342E1
2.828298333E0,1.588865897E1,-1.065744983E1,2.883650293E0,1.934802728E1
2.838235333E0,1.555238326E1,-9.719068780E0,2.060819874E0,1.845491538E1
2.848171333E0,1.576199659E1,-1.028018397E1,1.599855505E0,1.888603337E1
2.858107333E0,1.631156820E1,-8.579793774E0,4.382952400E0,1.894440261E1
2.868043333E0,1.702015017E1,-6.054635103E0,7.668361373E0,1.962518494E1
2.877979333E0,1.713962281E1,-4.394701211E0,9.404918933E0,2.003827760E1
2.887915333E0,1.655575728E1,-2.958052604E0,9.081449794E0,1.911323899E1
2.897852333E0,1.595603878E1,-2.254340493E0,7.479095188E0,1.776553093E1
2.907788333E0,1.511867423E1,-9.119913948E-1,6.137517046E0,1.634243416E1
2.917724333E0,1.436117679E1,7.543095303E-1,5.499746032E0,1.539673953E1
2.927660333E0,1.453081622E1,1.596517622E0,4.942753717E0,1.543127677E1
2.937596333E0,1.557391973E1,1.919519277E0,4.557579496E0,1.634022830E1
2.947533333E0,1.667009140E1,2.785806203E0,4.860437492E0,1.758625930E1
2.957469333E0,1.789777046E1,3.574416962E0,5.439792776E0,1.904463151E1
2.967405333E0,1.905920290E1,3.898098355E0,5.987660510E0,2.035437212E1
2.977341333E0,1.929709921E1,4.621322917E0,6.981795929E0,2.103521186E1
2.987277333E0,1.910087250E1,5.025749681E0,7.839393600E0,2.124988429E1
2.997214333E0,1.872276113E1,4.582981555E0,8.437734500E0,2.104140841E1
3.007150333E0,1.782594443E1,4.019971871E0,8.754857656E0,2.026257637E1
3.017086333E0,1.661982873E1,3.294010811E0,8.342544168E0,1.888563627E1
3.027022333E0,1.552051009E1,2.172567474E0,7.489180466E0,1.736934388E1
3.036958333E0,1.459709324E1,1.028334906E0,6.694720445E0,1.609198202E1
3.046895333E0,1.395567005E1,-9.289880812E-2,5.880666404E0,1.514435849E1
3.056831333E0,1.385991137E1,-1.303020726E0,5.023027217E0,1.479952055E1
3.066767333E0,1.417056341E1,-2.309123349E0,4.091065827E0,1.492895635E1
3.076703333E0,1.473990563E1,-3.407515208E0,3.638797145E0,1.556010355E1
3.086639333E0,1.496464921E1,-4.326028879E0,4.263682942E0,1.615036359E1
3.096576333E0,1.467293513E1,-4.978287832E0,5.389189802E0,1.640493041E1
3.106512333E0,1.438387569E1,-5.853453462E0,6.059785330E0,1.666972692E1
3.116448333E0,1.459207515E1,-7.465270032E0,5.641297182E0,1.733444974E1
3.126384333E0,1.454799066E1,-9.069219757E0,4.928145034E0,1.783763977E1
3.136320333E0,1.435011503E1,-1.052036537E1,4.215211278E0,1.828583865E1
3.146257333E0,1.399590942E1,-1.199317257E1,3.675570869E0,1.879445370E1
3.156193333E0,1.363948888E1,-1.338878249E1,3.174616515E0,1.937455402E1
3.166129333E0,1.249333872E1,-1.400090528E1,3.169167495E0,1.903030435E1
3.176065333E0,1.140039471E1,-1.489410489E1,2.718303899E0,1.895237548E1
3.186001333E0,1.056435631E1,-1.665709655E1,1.786267079E0,1.980543460E1
3.195937333E0,9.039103088E0,-1.822546363E1,1.016468275E0,2.036924438E1
3.205874333E0,7.082191452E0,-1.919592367E1,6.070357096E-1,2.046971943E1
3.215810333E0,5.067035701E0,-1.994807558E1,3.513182580E-1,2.058455718E1
3.225746333E0,3.129036884E0,-2.065654761E1,-3.478976369E-1,2.089509186E1
3.235682333E0,1.724162048E0,-2.115613606E1,-1.282864496E0,2.126500809E1
3.245618333E0,4.283439222E-1,-2.072499278E1,-1.906834327E0,2.081693593E1
3.255555333E0,-7.031648120E-1,-2.018436858E1,-2.379866764E0,2.033634533E1
3.265491333E0,-1.649933691E0,-1.997344080E1,-3.057861652E0,2.027340959E1
3.275427333E0,-2.703661886E0,-1.925322053E1,-3.394262201E0,1.973619275E1
3.285363333E0,-3.388373470E0,-1.833436568E1,-3.095263951E0,1.890001848E1
3.295299333E0,-3.923959420E0,-1.751847678E1,-2.995927067E0,1.820082595E1
3.305236333E0,-4.465952750E0,-1.657183479E1,-3.414665183E0,1.749943943E1
3.315172333E0,-4.921145332E0,-1.577016515E1,-3.597485397E0,1.690732626E1
3.325108333E0,-5.777180042E0,-1.516716051E1,-3.536319428E0,1.661096392E1
3.335044333E0,-6.839637253E0,-1.468282862E1,-3.541896502E0,1.658044405E1
3.344980333E0,-7.748848296E0,-1.419026853E1,-3.547802190E0,1.655280252E1
3.354917333E0,-8.679137968E0,-1.347042015E1,-3.499759127E0,1.640207209E1
3.364853333E0,-9.426689871E0,-1.267701730E1,-3.299095550E0,1.613856503E1
3.374789333E0,-9.733752308E0,-1.185351299E1,-2.992562286E0,1.562712812E1
3.384725333E0,-1.005833359E1,-1.095555141E1,-2.538870392E0,1.508774483E1
3.394661333E0,-1.032503679E1,-1.025040059E1,-2.252904270E0,1.472252270E1
3.404597333E0,-1.068801322E1,-9.870794671E0,-2.554735057E0,1.477135354E1
3.414534333E0,-1.131117322E1,-9.605926911E0,-3.236762477E0,1.518858462E1
3.424469917E0,-1.194390627E1,-9.463194038E0,-3.740625236E0,1.569080035E1
3.434405917E0,-1.234820732E1,-9.461112429E0,-3.993682204E0,1.606052209E1
3.444341917E0,-1.252507039E1,-9.491035556E0,-4.163213159E0,1.625698274E1
3.454277917E0,-1.235396683E1,-9.684103015E0,-4.322122062E0,1.628137238E1
3.464214917E0,-1.189956917E1,-9.914279244E0,-4.533272620E0,1.613825393E1
3.474150917E0,-1.134056600E1,-1.006500175E1,-4.734099335E0,1.588472203E1
3.484086917E0,-1.066673287E1,-1.039192894E1,-4.525615399E0,1.556446503E1
3.494022917E0,-9.908693984E0,-1.081174265E1,-4.014977764E0,1.520513209E1
3.503958917E0,-9.136025366E0,-1.140122385E1,-3.520157139E0,1.502818588E1
3.513895917E0,-8.396448480E0,-1.201818696E1,-3.171791725E0,1.499991425E1
3.523831917E0,-7.672518743E0,-1.253652158E1,-3.026528470E0,1.500639169E1
3.533767917E0,-6.963778903E0,-1.302791573E1,-3.087484816E0,1.509149984E1
3.543703917E0,-6.289338246E0,-1.347692693E1,-3.309952368E0,1.523611236E1
3.553639917E0,-5.763911541E0,-1.403803393E1,-3.572385347E0,1.559009333E1
3.563576917E0,-5.363808793E0,-1.471667932E1,-3.911444332E0,1.614467379E1
3.573512917E0,-4.962520230E0,-1.545800920E1,-4.275473268E0,1.678857728E1
3.583448917E0,-4.417424076E0,-1.625785334E1,-4.574289376E0,1.745724932E1
3.593384917E0,-3.455305086E0,-1.697384022E1,-4.186889120E0,1.782078633E1
3.603320917E0,-2.349508313E0,-1.730403482E1,-3.429118915E0,1.779631049E1
3.613257917E0,-1.237017648E0,-1.754977459E1,-2.678075640E0,1.779597960E1
3.623193917E0,-2.461274332E-1,-1.795422182E1,-2.191390831E0,1.808913634E1
3.633129917E0,8.682483745E-1,-1.870764140E1,-2.366048332E0,1.887664924E1
3.643065917E0,2.755721401E0,-1.939687961E1,-2.895764555E0,1.980450432E1
3.653001917E0,6.012973691E0,-1.931571324E1,-2.481451904E0,2.038161510E1
3.662938917E0,9.598376986E0,-1.797330713E1,-4.119825357E-1,2.037985131E1
3.672874917E0,1.237785504E1,-1.683943144E1,2.321979622E0,2.102782290E1
3.682810917E0,1.376209564E1,-1.582120666E1,4.627413377E0,2.147367717E1
3.692746917E0,1.430954003E1,-1.398878751E1,5.797842933E0,2.083420492E1
3.702682917E0,1.488765658E1,-1.182273442E1,5.669608816E0,1.983844328E1
3.712618917E0,1.599588872E1,-1.011185900E1,5.543722941E0,1.971930558E1
3.722555917E0,1.684894135E1,-8.641463188E0,5.771367325E0,1.979571649E1
3.732491917E0,1.682585304E1,-7.136580498E0,5.702260838E0,1.914564938E1
3.742427917E0,1.630119056E1,-5.941408449E0,5.458327864E0,1.818852636E1
3.752363917E0,1.590564280E1,-4.762655967E0,5.912588693E0,1.762472892E1
3.762299917E0,1.559747114E1,-3.281240200E0,6.528049071E0,1.722390978E1
3.772236917E0,1.592460882E1,-1.836358714E0,6.834457204E0,1.742627857E1
3.782172917E0,1.682921869E1,-1.036898446E-1,7.063803129E0,1.825186752E1
3.792108917E0,1.765269377E1,1.643558180E0,7.023514643E0,1.906957364E1
3.802044917E0,1.810781882E1,3.059203003E0,6.794535924E0,1.958105063E1
3.811980917E0,1.814225424E1,3.652701824E0,6.468608615E0,1.960424742E1
3.821917917E0,1.783227229E1,3.773393617E0,6.361206958E0,1.930526841E1
3.831853917E0,1.715556232E1,3.862509862E0,6.434651495E0,1.872530483E1
3.841789917E0,1.661892826E1,3.897320091E0,7.034518518E0,1.846245734E1
3.851725917E0,1.621768063E1,3.867967653E0,8.122196524E0,1.854573846E1
3.861661917E0,1.568549045E1,3.402864917E0,8.735339066E0,1.827348486E1
3.871598917E0,1.500310167E1,2.757670278E0,8.969496079E0,1.769603529E1
3.881534917E0,1.412967032E1,2.418035926E0,8.707232670E0,1.677230998E1
3.891470917E0,1.344940993E1,1.991412547E0,7.802609936E0,1.567587552E1
3.901406917E0,1.292031878E1,1.266218058E0,6.852934991E0,1.467994085E1
3.911342917E0,1.259953351E1,3.309623462E-1,5.940941842E0,1.393386417E1
3.921279917E0,1.215555910E1,-3.742524996E-1,5.358957943E0,1.328969948E1
3.931215917E0,1.166863105E1,-9.691096285E-1,5.111133648E0,1.277575091E1
3.941151917E0,1.145292259E1,-1.900728664E0,4.989841930E0,1.263648399E1
3.951087917E0,1.135632425E1,-2.750832252E0,4.929441946E0,1.268197841E1
3.961023917E0,1.157387341E1,-3.602858696E0,5.035660712E0,1.312604340E1
3.970959917E0,1.175283914E1,-4.391676446E0,5.498916897E0,1.369869107E1
3.980896917E0,1.212229546E1,-5.534634029E0,5.726210448E0,1.450419619E1
3.990832917E0,1.223052275E1,-6.811080621E0,5.926939514E0,1.520214189E1
4.000768917E0,1.198598751E1,-7.825631009E0,6.062959199E0,1.554554185E1
4.010704917E0,1.149475825E1,-9.060650663E0,5.557532895E0,1.565602215E1
4.020640917E0,1.110128975E1,-1.037141690E1,4.597330037E0,1.587262947E1
4.030577917E0,1.106758523E1,-1.156968447E1,3.577430617E0,1.640570179E1
4.040513917E0,1.106779339E1,-1.237120325E1,2.969900817E0,1.686306707E1
4.050449917E0,1.095389548E1,-1.320459169E1,2.625445436E0,1.735632541E1
4.060385917E0,1.054887990E1,-1.416214108E1,2.432170401E0,1.782583967E1
4.070321917E0,9.834940714E0,-1.503606827E1,2.472665877E0,1.813624781E1
4.080258917E0,9.391467998E0,-1.631895206E1,1.893103895E0,1.892331129E1
4.090194917E0,8.545016874E0,-1.753853273E1,1.164042642E0,1.954411520E1
4.100130917E0,7.239572185E0,-1.779724513E1,7.266878682E-1,1.922710105E1
4.110066917E0,6.313924618E0,-1.769047263E1,1.119975686E-1,1.878379646E1
4.120002917E0,5.439206885E0,-1.767271580E1,-5.232889634E-1,1.849820766E1
4.129939917E0,4.396242829E0,-1.795444401E1,-1.321124290E0,1.853198263E1
4.139875917E0,3.225861513E0,-1.877140763E1,-2.406197069E0,1.919796112E1
4.149811917E0,1.840530117E0,-1.949867729E1,-3.486568394E0,1.989326837E1
4.159747917E0,4.202733028E-1,-1.950845150E1,-4.563913785E0,2.003960126E1
4.169683917E0,-7.238123538E-1,-1.920922959E1,-5.461211711E0,1.998357423E1
4.179619917E0,-1.858308138E0,-1.877829565E1,-5.842388191E0,1.975376410E1
4.189556917E0,-3.021115117E0,-1.814917851E1,-5.539873134E0,1.921483832E1
4.199492917E0,-4.053226448E0,-1.749094224E1,-4.857433485E0,1.859990229E1
4.209428917E0,-5.075766764E0,-1.679399273E1,-4.038768038E0,1.800314548E1
4.219364917E0,-6.168151778E0,-1.592719095E1,-3.261159984E0,1.738840627E1
4.229300917E0,-7.101491357E0,-1.500079904E1,-2.612878016E0,1.680125837E1
4.239237917E0,-7.799057752E0,-1.402802934E1,-2.251770057E0,1.620744821E1
4.249173917E0,-8.600227454E0,-1.307158625E1,-2.098988013E0,1.578721096E1
4.259109917E0,-9.592463697E0,-1.236180443E1,-2.199544773E0,1.580087231E1
4.269045917E0,-1.053772809E1,-1.193172184E1,-2.499606339E0,1.611389870E1
4.278981917E0,-1.146628348E1,-1.166836676E1,-2.971912844E0,1.662704741E1
4.288918917E0,-1.229329845E1,-1.145606605E1,-3.439576076E0,1.715218120E1
4.298854917E0,-1.284907279E1,-1.094233904E1,-3.427427316E0,1.722151890E1
4.308790917E0,-1.308376483E1,-1.045805627E1,-3.226420507E0,1.705771474E1
4.318726917E0,-1.308235097E1,-1.032035200E1,-2.953929732E0,1.692286244E1
4.328662917E0,-1.298252146E1,-1.034669487E1,-2.687223901E0,1.681728666E1
4.338599917E0,-1.285165843E1,-1.037676710E1,-2.595394256E0,1.672060081E1
4.348535917E0,-1.243755160E1,-1.052314279E1,-2.433474476E0,1.647273572E1
4.358471917E0,-1.175312799E1,-1.078267497E1,-2.292248430E0,1.611386049E1
4.368407917E0,-1.089586303E1,-1.106508028E1,-2.393203971E0,1.571251915E1
4.378343917E0,-9.939660838E0,-1.146281023E1,-2.545768352E0,1.538420659E1
4.388280917E0,-9.031675370E0,-1.190587481E1,-2.582257317E0,1.516539046E1
4.398216917E0,-8.135308905E0,-1.239683159E1,-2.535174952E0,1.504299826E1
4.408152917E0,-7.264922789E0,-1.290451258E1,-2.519378114E0,1.502174471E1
4.418088667E0,-6.458152040E0,-1.340846773E1,-2.639246619E0,1.511490514E1
4.428024667E0,-5.731379387E0,-1.394599291E1,-2.793755200E0,1.533442193E1
4.437960667E0,-5.179847202E0,-1.482558488E1,-3.055537384E0,1.599890911E1
4.447897667E0,-4.622904589E0,-1.565627776E1,-3.208992881E0,1.663694429E1
4.457833667E0,-4.162038161E0,-1.612858777E1,-3.202087319E0,1.696193587E1
4.467769667E0,-3.496411304E0,-1.656495144E1,-3.269387602E0,1.724272031E1
4.477705667E0,-2.631134192E0,-1.681576425E1,-3.427471462E0,1.736203776E1
4.487641667E0,-1.664312287E0,-1.734598509E1,-3.556890810E0,1.778495449E1
4.497578667E0,-5.086709243E-1,-1.803048588E1,-3.446921933E0,1.836405288E1
4.507514667E0,7.856921214E-1,-1.829289021E1,-2.977234103E0,1.855023092E1
4.517450667E0,2.169404715E0,-1.875782571E1,-2.263106931E0,1.901799136E1
4.527386667E0,3.791182017E0,-1.942493806E1,-1.705005984E0,1.986475081E1
4.537322667E0,5.826358634E0,-1.935938726E1,-1.055823544E0,2.024468062E1
4.547259667E0,8.391594121E0,-1.753225399E1,-1.418826878E-2,1.943705181E1
4.557195667E0,1.122560506E1,-1.511034896E1,1.326461336E0,1.887051548E1
4.567131667E0,1.385533534E1,-1.328883954E1,2.426499186E0,1.935074862E1
4.577067667E0,1.564922368E1,-1.163220641E1,3.330907327E0,1.978133896E1
4.587003667E0,1.617218227E1,-1.032867142E1,3.823493730E0,1.956629850E1
4.596939667E0,1.523738908E1,-9.207766024E0,4.221240635E0,1.829699029E1
4.606876667E0,1.395386326E1,-7.825960207E0,4.358786443E0,1.658176626E1
4.616812667E0,1.376286045E1,-7.075761269E0,3.936053801E0,1.596794429E1
4.626748667E0,1.460876896E1,-5.466194124E0,3.956227865E0,1.609183481E1
4.636684667E0,1.551738651E1,-2.521219987E0,5.191790140E0,1.655598137E1
4.646620667E0,1.618123376E1,-7.582640022E-1,6.322098441E0,1.738896832E1
4.656557667E0,1.661584444E1,-2.839635962E-1,6.915326536E0,1.799968508E1
4.666493667E0,1.626658089E1,7.635741511E-1,6.725559829E0,1.761867913E1
4.676429667E0,1.626450279E1,1.479433561E0,5.078464669E0,1.710302833E1
4.686365667E0,1.603120006E1,1.693103392E0,3.744685835E0,1.654958146E1
4.696301667E0,1.594259369E1,2.510691198E0,3.303942015E0,1.647379424E1
4.706238667E0,1.679312383E1,3.540359269E0,3.671932147E0,1.755067627E1
4.716174667E0,1.736966514E1,4.700872532E0,5.310605562E0,1.876182297E1
4.726110667E0,1.784185587E1,5.221769984E0,6.856148036E0,1.981427437E1
4.736046667E0,1.785935893E1,5.278453478E0,7.978402966E0,2.026015021E1
4.745982667E0,1.769566262E1,5.287293298E0,8.373871211E0,2.027840391E1
4.755919667E0,1.746453856E1,4.989554247E0,8.068084052E0,1.987460034E1
4.765855667E0,1.694735116E1,4.411895826E0,7.253412545E0,1.895493418E1
4.775791667E0,1.643591509E1,3.525078741E0,6.470919435E0,1.801217042E1
4.785727667E0,1.542069812E1,2.646722869E0,6.013136244E0,1.676188772E1
4.795663667E0,1.406040655E1,1.798408238E0,5.771690091E0,1.530495707E1
4.805599667E0,1.270489566E1,1.009352213E0,5.609915761E0,1.392495316E1
4.815536667E0,1.173105359E1,3.402667281E-1,5.260942236E0,1.286121740E1
4.825472667E0,1.136989563E1,-5.269110212E-1,4.698231930E0,1.231363249E1
4.835408667E0,1.148965830E1,-1.332204179E0,4.433456556E0,1.238719310E1
4.845344667E0,1.174732756E1,-1.842364974E0,4.482907921E0,1.270789034E1
4.855280667E0,1.238142067E1,-2.882361859E0,4.429657620E0,1.346214895E1
4.865217667E0,1.283973245E1,-4.108081517E0,4.180579682E0,1.411425909E1
4.875153667E0,1.296044471E1,-5.504681666E0,4.075557549E0,1.465895005E1
4.885089667E0,1.301109095E1,-7.300300198E0,4.309057043E0,1.552903227E1
4.895025667E0,1.314666216E1,-8.908455241E0,4.842221662E0,1.660248208E1
4.904961667E0,1.342289398E1,-1.013294757E1,5.705656900E0,1.775965174E1
4.914898667E0,1.399382313E1,-1.100942648E1,6.241074743E0,1.886757990E1
4.924834667E0,1.395648983E1,-1.172374457E1,6.398246146E0,1.931753993E1
4.934770667E0,1.363976019E1,-1.314231417E1,5.661009316E0,1.976892780E1
4.944706667E0,1.230089048E1,-1.489075561E1,4.347751577E0,1.979771333E1
4.954642667E0,1.043557957E1,-1.607627390E1,2.882364491E0,1.938184534E1
4.964578667E0,8.985146152E0,-1.739595072E1,6.870349753E-1,1.959142592E1
4.974515667E0,7.188060554E0,-1.847600395E1,-9.684313515E-1,1.984864720E1
4.984451667E0,5.165737286E0,-1.857281981E1,-1.294647805E0,1.932124712E1
4.994387667E0,3.324260797E0,-1.856297310E1,-1.573247166E0,1.892378891E1
5.004323667E0,1.583810161E0,-1.873479470E1,-1.899151670E0,1.889729515E1
5.014259667E0,3.107736647E-2,-1.871311556E1,-2.182586678E0,1.883999322E1
5.024196667E0,-1.350361830E0,-1.853749795E1,-2.537357132E0,1.875901086E1
5.034132667E0,-2.340391334E0,-1.811618969E1,-3.138335711E0,1.853437108E1
5.044068667E0,-3.037519773E0,-1.753197098E1,-3.937679035E0,1.822366179E1
5.054004667E0,-3.693458671E0,-1.676352055E1,-4.451589357E0,1.773341213E1
5.063940667E0,-4.205332700E0,-1.590427104E1,-4.564525988E0,1.707236240E1
5.073877667E0,-4.843273868E0,-1.512948924E1,-4.601861045E0,1.653891990E1
5.083813667E0,-5.685568206E0,-1.451612684E1,-4.677035773E0,1.627631063E1
5.093749667E0,-6.515103920E0,-1.399369099E1,-4.673082470E0,1.612785374E1
5.103685667E0,-7.091697856E0,-1.336240570E1,-4.639192593E0,1.582302666E1
5.113621667E0,-7.484229044E0,-1.258289467E1,-4.444589070E0,1.530023839E1
5.123558667E0,-7.964750302E0,-1.175425768E1,-4.188227840E0,1.480341425E1
5.133494667E0,-8.230856502E0,-1.099000320E1,-3.973903413E0,1.429402244E1
5.143430667E0,-8.917116137E0,-1.033372926E1,-3.826298640E0,1.417538295E1
5.153366667E0,-9.949300557E0,-9.989907131E0,-3.794749403E0,1.460092289E1
5.163302667E0,-1.091079448E1,-9.813248713E0,-3.665048220E0,1.512540462E1
5.173238667E0,-1.145894405E1,-9.519792162E0,-3.380710986E0,1.527622494E1
5.183175667E0,-1.167086703E1,-9.191709570E0,-2.795785938E0,1.511664913E1
5.193111667E0,-1.168121660E1,-8.983489636E0,-2.294575622E0,1.491371800E1
5.203047667E0,-1.124751224E1,-8.744481772E0,-1.967612041E0,1.438207183E1
5.212983667E0,-1.070979878E1,-8.515918205E0,-1.872426679E0,1.381038140E1
5.222919667E0,-1.018115903E1,-8.426649349E0,-2.064650970E0,1.337636730E1
5.232856667E0,-9.662471825E0,-8.429500451E0,-2.404299647E0,1.304609123E1
5.242792667E0,-9.188573123E0,-8.482278004E0,-2.759503088E0,1.280600537E1
5.252728667E0,-8.693202860E0,-8.625353524E0,-3.089871649E0,1.262995670E1
5.262664667E0,-8.048675389E0,-8.931739438E0,-3.298523108E0,1.246745361E1
5.272600667E0,-7.525301641E0,-9.243776686E0,-3.319103553E0,1.237311685E1
5.282537667E0,-7.092207148E0,-9.792510978E0,-3.182830099E0,1.250292290E1
5.292473667E0,-6.726302426E0,-1.047938574E1,-2.970283810E0,1.280168956E1
5.302409667E0,-6.351921580E0,-1.106225140E1,-2.829724055E0,1.306627919E1
5.312345667E0,-6.014428478E0,-1.157167486E1,-2.786829173E0,1.333579491E1
5.322281667E0,-5.697724568E0,-1.222954041E1,-2.801799507E0,1.377954297E1
5.332218667E0,-5.272425583E0,-1.295703344E1,-2.967034805E0,1.429987702E1
5.342154667E0,-4.499121080E0,-1.343376512E1,-3.165263601E0,1.451643997E1
5.352090667E0,-3.506345431E0,-1.374720512E1,-3.418933943E0,1.459346484E1
5.362026667E0,-2.695065894E0,-1.393151286E1,-3.787871616E0,1.468667431E1
5.371962667E0,-2.207066631E0,-1.435400460E1,-4.109308555E0,1.509287938E1
5.381898667E0,-1.675852352E0,-1.516570572E1,-3.985770045E0,1.577001820E1
5.391835667E0,-1.178501637E0,-1.612146353E1,-3.590252391E0,1.655839257E1
5.401771667E0,-5.023389745E-1,-1.657200085E1,-2.538068739E0,1.677275617E1
5.411707667E0,6.001675701E-1,-1.652826601E1,-1.258638897E0,1.658698135E1
5.421643792E0,2.498948527E0,-1.672943362E1,-8.986585736E-2,1.691528211E1
5.431579792E0,4.927655037E0,-1.672162174E1,8.558218718E-1,1.745356264E1
5.441516792E0,6.995407662E0,-1.583383782E1,1.567912166E0,1.738115350E1
5.451452792E0,9.452135784E0,-1.475948679E1,1.804160728E0,1.761931659E1
5.461388792E0,1.209965972E1,-1.334402089E1,2.300418014E0,1.815920103E1
5.471324792E0,1.485163774E1,-1.139988132E1,4.547542166E0,1.926677392E1
5.481260792E0,1.745890184E1,-9.668707881E0,7.822576423E0,2.143571476E1
5.491197792E0,1.996540906E1,-7.896833138E0,1.009773330E1,2.372639354E1
5.501133792E0,2.187734567E1,-5.495675785E0,1.067080019E1,2.495369076E1
5.511069792E0,2.183229170E1,-2.908747420E0,9.435853043E0,2.396132499E1
5.521005792E0,2.009453196E1,-1.500602528E0,7.484541285E0,2.149558980E1
5.530941792E0,1.776541990E1,-9.016049856E-1,5.989041038E0,1.876943388E1
5.540877792E0,1.511678792E1,-3.680800326E-1,5.201717543E0,1.599095448E1
5.550814792E0,1.296818993E1,6.245849580E-2,4.880405442E0,1.385626964E1
5.560750792E0,1.152461647E1,9.173825276E-1,4.990964595E0,1.259238274E1
5.570686792E0,1.106036275E1,1.926010855E0,4.957224991E0,1.227253933E1
5.580622792E0,1.145118479E1,3.039859244E0,4.953024352E0,1.284144959E1
5.590558792E0,1.261714298E1,4.509243780E0,4.832222923E0,1.424345306E1
5.600495792E0,1.425655140E1,6.041098214E0,4.549369713E0,1.613818113E1
5.610431792E0,1.534248810E1,7.466085134E0,3.845752326E0,1.749068836E1
5.620367792E0,1.559498257E1,8.336625617E0,2.992407043E0,1.793480716E1
5.630303792E0,1.543161604E1,8.337756468E0,2.229399194E0,1.768115317E1
5.640239792E0,1.471499766E1,7.672253280E0,1.745828613E0,1.668659774E1
5.650176792E0,1.371752582E1,7.024819157E0,1.530634412E0,1.548746075E1
5.660112792E0,1.300590798E1,6.378024720E0,1.301377073E0,1.454394802E1
5.670048792E0,1.259859094E1,5.614887648E0,1.047365839E0,1.383287505E1
5.679984792E0,1.229770024E1,4.985485754E0,7.812415132E-1,1.329281150E1
5.689920792E0,1.218609326E1,4.277142648E0,6.802489892E-1,1.293280932E1
5.699856792E0,1.236710903E1,3.301170727E0,8.791841295E-1,1.283027975E1
5.709793792E0,1.280860655E1,2.291529369E0,1.501333430E0,1.309830183E1
5.719729792E0,1.317884523E1,1.279875399E0,2.411289994E0,1.345861665E1
5.729665792E0,1.327585054E1,-7.517297387E-2,3.205221426E0,1.365749988E1
5.739601792E0,1.338397023E1,-1.741122335E0,3.762215787E0,1.401129665E1
5.749537792E0,1.359430043E1,-3.238818066E0,4.593811183E0,1.471047408E1
5.759474792E0,1.398985638E1,-4.506476293E0,5.206984715E0,1.559285413E1
5.769410792E0,1.400929603E1,-5.880537180E0,5.077814459E0,1.601952848E1
5.779346792E0,1.373578784E1,-6.939084942E0,4.681567950E0,1.608539232E1
5.789282792E0,1.335590360E1,-8.319393872E0,3.903153273E0,1.621194254E1
5.799218792E0,1.309355307E1,-1.013169042E1,3.190847509E0,1.686042083E1
5.809155792E0,1.298122455E1,-1.177061351E1,2.803546363E0,1.774596870E1
5.819091792E0,1.277213162E1,-1.310548373E1,2.959866410E0,1.853757964E1
5.829027792E0,1.201700348E1,-1.379389513E1,3.690324271E0,1.866275459E1
5.838963792E0,1.131788699E1,-1.441747613E1,4.001765103E0,1.876092502E1
5.848899792E0,1.052803340E1,-1.534320497E1,3.567542098E0,1.894678819E1
5.858835792E0,1.008331991E1,-1.658050738E1,2.112849568E0,1.952051994E1
5.868772792E0,9.417463549E0,-1.750668295E1,8.071993500E-1,1.989532956E1
5.878708792E0,7.984624404E0,-1.786598967E1,4.416226566E-2,1.956910228E1
5.888644792E0,6.411888285E0,-1.883455054E1,-5.515128887E-1,1.990368739E1
5.898580792E0,4.451911246E0,-1.996383031E1,-8.017731339E-1,2.046990168E1
5.908516792E0,2.352176105E0,-2.070031285E1,-8.383009824E-1,2.085038209E1
5.918453792E0,3.707351071E-1,-2.124137677E1,-9.101097608E-1,2.126409724E1
5.928389792E0,-2.021437561E0,-2.148121318E1,-1.373806534E0,2.161980744E1
5.938325792E0,-5.065351703E0,-2.108657524E1,-2.204994086E0,2.179824402E1
5.948261792E0,-7.736412438E0,-2.009145164E1,-3.272520832E0,2.177677430E1
5.958197792E0,-9.023407407E0,-1.863338293E1,-4.360833553E0,2.115754499E1
5.968134792E0,-8.889185157E0,-1.688511925E1,-4.885222962E0,1.969746857E1
5.978070792E0,-7.824265099E0,-1.506843846E1,-4.707541282E0,1.761924819E1
5.988006792E0,-6.747366436E0,-1.362326753E1,-4.325488304E0,1.580601851E1
5.997942792E0,-6.574658981E0,-1.268067181E1,-3.899301127E0,1.480642184E1
6.007878792E0,-7.452958719E0,-1.217385387E1,-3.274295754E0,1.464480537E1
6.017815792E0,-8.727154718E0,-1.183484166E1,-2.518374732E0,1.491874385E1
6.027751792E0,-1.011621401E1,-1.151893064E1,-2.173642339E0,1.548380670E1
6.037687792E0,-1.154804977E1,-1.108285582E1,-2.176453534E0,1.615314510E1
6.047623792E0,-1.289186857E1,-1.082081986E1,-2.012957344E0,1.695117739E1
6.057559792E0,-1.346147157E1,-1.076406094E1,-1.917623171E0,1.734224620E1
6.067495792E0,-1.357263065E1,-1.059507407E1,-1.927995839E0,1.732596506E1
6.077432792E0,-1.328652755E1,-1.050633088E1,-2.065415493E0,1.706401899E1
6.087368792E0,-1.285581931E1,-1.050120755E1,-2.474096399E0,1.678298552E1
6.097304792E0,-1.206062722E1,-1.056503458E1,-2.881344444E0,1.629051351E1
6.107240792E0,-1.099250347E1,-1.059929225E1,-3.108935326E0,1.558350435E1
6.117176792E0,-1.012277575E1,-1.061718941E1,-3.115305283E0,1.499668053E1
6.127113792E0,-9.381597313E0,-1.091678086E1,-3.027977702E0,1.470915094E1
6.137049792E0,-8.665999859E0,-1.130620542E1,-2.844530082E0,1.452656828E1
6.146985792E0,-7.970448999E0,-1.170094510E1,-2.529222194E0,1.438183363E1
6.156921792E0,-7.233473539E0,-1.216142503E1,-2.299622793E0,1.433567798E1
6.166857792E0,-6.536247452E0,-1.258344314E1,-2.230830008E0,1.435416924E1
6.176794792E0,-5.797002103E0,-1.307432625E1,-2.320347225E0,1.448886647E1
6.186730792E0,-4.858403246E0,-1.365296087E1,-2.541778212E0,1.471285353E1
6.196666792E0,-3.869070145E0,-1.420628288E1,-2.743983700E0,1.497723685E1
6.206602792E0,-3.043786527E0,-1.456358518E1,-2.910436096E0,1.516025356E1
6.216538792E0,-1.994494030E0,-1.495607368E1,-3.063713545E0,1.539637903E1
6.226474792E0,-1.159798148E0,-1.540029718E1,-3.342496801E0,1.580147366E1
6.236411792E0,-5.574051279E-1,-1.578731854E1,-3.600189149E0,1.620220630E1
6.246347792E0,3.585079944E-1,-1.615428746E1,-3.696861166E0,1.657577490E1
6.256283792E0,1.904947430E0,-1.626869174E1,-3.228960830E0,1.669506944E1
6.266219792E0,3.969226225E0,-1.632860348E1,-1.728218553E0,1.689274364E1
6.276155792E0,6.712135207E0,-1.602008567E1,6.361507505E-1,1.738104116E1
6.286092792E0,8.993985972E0,-1.442837183E1,3.775179942E0,1.741613278E1
6.296028792E0,1.026100276E1,-1.220024937E1,6.034232413E0,1.704541649E1
6.305964792E0,1.162762453E1,-1.052676105E1,5.415055545E0,1.659328710E1
6.315900792E0,1.164121346E1,-9.496315591E0,3.732402881E0,1.547994483E1
6.325836792E0,1.150216433E1,-9.177000314E0,3.237959402E0,1.506656896E1
6.335773792E0,1.270319061E1,-8.889371098E0,4.558895704E0,1.616092510E1
6.345709792E0,1.374963522E1,-6.983050157E0,7.223664250E0,1.702929192E1
6.355645792E0,1.520476629E1,-5.037023113E0,8.397971095E0,1.808542060E1
6.365581792E0,1.639533775E1,-3.457545739E0,7.597572057E0,1.839795705E1
6.375517792E0,1.561087764E1,-1.777877494E0,6.908752511E0,1.716365958E1
6.385453792E0,1.432656713E1,-1.248158786E0,6.501216783E0,1.578208622E1
6.395390792E0,1.354089313E1,-7.816614895E-1,5.962896382E0,1.481630570E1
6.405326792E0,1.284793025E1,3.608065349E-1,5.361292151E0,1.392634003E1
6.415262792E0,1.315039736E1,1.016277071E0,4.406003586E0,1.390606477E1
6.425198292E0,1.365240889E1,1.733330482E0,4.169996222E0,1.437990165E1
6.435134292E0,1.402747971E1,2.771571448E0,5.701189628E0,1.539335436E1
6.445071292E0,1.437110420E1,3.676892632E0,7.641404539E0,1.668649869E1
6.455007292E0,1.479710426E1,4.538146859E0,8.916272968E0,1.786194265E1
6.464943292E0,1.513008682E1,5.419967791E0,9.097323230E0,1.846772504E1
6.474879292E0,1.508636485E1,6.094244142E0,8.897862425E0,1.854481523E1
6.484815292E0,1.461678315E1,6.337318159E0,8.732224839E0,1.816765537E1
6.494752292E0,1.424884593E1,6.198549698E0,8.988842762E0,1.795134878E1
6.504688292E0,1.387662622E1,5.545682927E0,9.473036656E0,1.769332580E1
6.514624292E0,1.346441974E1,4.621564115E0,9.709151902E0,1.723128214E1
6.524560292E0,1.300502973E1,3.417038275E0,9.613142960E0,1.652935166E1
6.534496292E0,1.260744362E1,2.055353897E0,9.258814555E0,1.577649395E1
6.544432292E0,1.225282637E1,7.968974331E-1,8.606335455E0,1.499452598E1
6.554369292E0,1.185055898E1,-3.494158664E-1,7.972209011E0,1.428684556E1
6.564305292E0,1.125376993E1,-1.388799672E0,7.706168300E0,1.370989176E1
6.574241292E0,1.074302149E1,-2.363999029E0,7.730795018E0,1.344493190E1
6.584177292E0,1.047282633E1,-3.417822679E0,7.604153683E0,1.338599105E1
6.594113292E0,1.038944972E1,-4.243859127E0,7.249173898E0,1.336044640E1
6.604050292E0,1.012335930E1,-4.892628753E0,6.587017656E0,1.303107905E1
6.613986292E0,9.910561584E0,-5.805862974E0,5.398171710E0,1.269123846E1
6.623922292E0,1.026318260E1,-6.801674205E0,4.090776390E0,1.297421060E1
6.633858292E0,1.092458455E1,-7.351487893E0,3.409573427E0,1.360206282E1
6.643794292E0,1.151460720E1,-7.747178916E0,3.438156956E0,1.429775799E1
6.653731292E0,1.169168077E1,-8.541478139E0,3.596356300E0,1.491931724E1
6.663667292E0,1.194797710E1,-9.925657926E0,3.632117286E0,1.595196283E1
6.673603292E0,1.123408352E1,-1.072499336E1,3.875510561E0,1.600780114E1
6.683539292E0,1.017012066E1,-1.137812384E1,3.490419370E0,1.565490605E1
6.693475292E0,9.009948286E0,-1.251451733E1,2.505431335E0,1.562272378E1
6.703411292E0,7.794525576E0,-1.359957813E1,1.403858006E0,1.573766093E1
6.713348292E0,6.366308069E0,-1.448854903E1,4.067545402E-1,1.583077322E1
6.723284292E0,4.902045402E0,-1.497460234E1,-1.617260912E-1,1.575737668E1
6.733220292E0,3.703143122E0,-1.518163588E1,-8.563373038E-1,1.565019650E1
6.743156292E0,2.786276026E0,-1.551093469E1,-1.954556962E0,1.587994716E1
6.753092292E0,1.726340428E0,-1.549416487E1,-2.831781397E0,1.584513750E1
6.763029292E0,5.068074167E-1,-1.527380671E1,-3.329399038E0,1.564068167E1
6.772965292E0,-7.953397349E-1,-1.529006898E1,-3.476150702E0,1.570039485E1
6.782901292E0,-1.960848712E0,-1.541604841E1,-3.499821985E0,1.592947677E1
6.792837292E0,-3.125003475E0,-1.536565594E1,-3.508607134E0,1.606796045E1
6.802773292E0,-4.068729756E0,-1.505682472E1,-3.576253280E0,1.600162867E1
6.812710292E0,-4.643506669E0,-1.433938305E1,-3.674535327E0,1.551393794E1
6.822646292E0,-5.016527452E0,-1.331729911E1,-3.426655483E0,1.463755345E1
6.832582292E0,-5.245329586E0,-1.248533271E1,-3.091773748E0,1.389086319E1
6.842518292E0,-5.333164705E0,-1.183658881E1,-3.197705415E0,1.337059462E1
6.852454292E0,-5.285957794E0,-1.110650313E1,-3.428275747E0,1.276905776E1
6.862390292E0,-5.378384147E0,-1.041259300E1,-3.506414428E0,1.223290853E1
6.872327292E0,-5.670970048E0,-9.886151798E0,-3.560025210E0,1.194025453E1
6.882263292E0,-6.248693665E0,-9.625235002E0,-3.550151017E0,1.201228095E1
6.892199292E0,-7.096437024E0,-9.557469281E0,-3.586309614E0,1.243246774E1
6.902135292E0,-7.892899132E0,-9.677313813E0,-3.779308076E0,1.304727668E1
6.912071292E0,-8.677549864E0,-9.606265465E0,-4.008620671E0,1.355172489E1
6.922008292E0,-9.212508700E0,-9.279870964E0,-4.116517587E0,1.370883068E1
6.931944292E0,-9.430608675E0,-8.824299189E0,-4.174140143E0,1.357306458E1
6.941880292E0,-9.523266578E0,-8.361397930E0,-4.268243478E0,1.337248982E1
6.951816292E0,-9.355041599E0,-8.163139898E0,-4.283735676E0,1.313407963E1
6.961752292E0,-9.154249967E0,-8.194552310E0,-4.214266076E0,1.298888057E1
6.971689292E0,-8.981850661E0,-8.318326755E0,-4.353249130E0,1.299303580E1
6.981625292E0,-8.954661693E0,-8.433537953E0,-4.485728910E0,1.309321551E1
6.991561292E0,-8.913441162E0,-8.757189526E0,-4.629890842E0,1.332567788E1
7.001497292E0,-8.785904033E0,-9.280006619E0,-4.585758105E0,1.357717975E1
7.011433292E0,-8.633886951E0,-9.920152187E0,-4.378443028E0,1.386088694E1
7.021369292E0,-8.353740417E0,-1.055119773E1,-4.125588373E0,1.407598068E1
7.031306292E0,-7.974482408E0,-1.108399602E1,-3.966926515E0,1.421913653E1
7.041242292E0,-7.444911196E0,-1.160288262E1,-3.841974440E0,1.431133660E1
7.051178292E0,-7.007858139E0,-1.211856377E1,-3.786364788E0,1.450193855E1
7.061114292E0,-6.683956890E0,-1.259539602E1,-3.874225635E0,1.477595699E1
7.071050292E0,-6.178868555E0,-1.314455014E1,-4.064431760E0,1.508234798E1
7.080987292E0,-5.578257766E0,-1.372134054E1,-4.309445006E0,1.542606438E1
7.090923292E0,-4.995829479E0,-1.431779864E1,-4.487439221E0,1.581438525E1
7.100859292E0,-4.267552045E0,-1.494647139E1,-4.662874986E0,1.622810557E1
7.110795292E0,-3.481233979E0,-1.567342180E1,-4.531551200E0,1.668262860E1
7.120731292E0,-2.599248156E0,-1.648387161E1,-4.085153707E0,1.718029671E1
7.130668292E0,-1.525204103E0,-1.743412134E1,-3.607649027E0,1.786868674E1
7.140604292E0,-2.000291544E-1,-1.822480991E1,-2.884072462E0,1.845268495E1
7.150540292E0,1.618734410E0,-1.871389909E1,-1.534429840E0,1.884634700E1
7.160476292E0,4.087365124E0,-1.871322549E1,9.306311488E-2,1.915463450E1
7.170412292E0,7.274420421E0,-1.818514473E1,1.951035769E0,1.968306943E1
7.180348292E0,1.124572299E1,-1.630000709E1,4.253905520E0,2.025468412E1
7.190285292E0,1.518007584E1,-1.344846035E1,5.772475373E0,2.108594935E1
7.200221292E0,1.803379657E1,-1.021523543E1,5.833322668E0,2.153129135E1
7.210157292E0,1.848411521E1,-7.166926378E0,5.168482554E0,2.048757088E1
7.220093292E0,1.760876598E1,-5.713709101E0,4.641785833E0,1.908563037E1
7.230029292E0,1.655113330E1,-6.288374625E0,4.439965969E0,1.825368365E1
7.239966292E0,1.511130323E1,-6.182422493E0,5.542552913E0,1.724220769E1
7.249902292E0,1.369158523E1,-4.868176575E0,7.164720224E0,1.620160070E1
7.259838292E0,1.270243398E1,-3.742925823E0,8.064610806E0,1.550481442E1
7.269774292E0,1.252670410E1,-2.153642230E0,7.926572077E0,1.497955391E1
7.279710292E0,1.311728107E1,-6.271995404E-1,6.808913058E0,1.479248927E1
7.289647292E0,1.412394590E1,3.801324597E-1,5.406019843E0,1.512796745E1
7.299583292E0,1.524476008E1,1.461418289E0,4.211953210E0,1.588329321E1
7.309519292E0,1.616302670E1,2.409175933E0,4.187674693E0,1.686962300E1
7.319455292E0,1.674083101E1,2.866993915E0,5.658341231E0,1.790228764E1
7.329391292E0,1.648829795E1,3.401637002E0,7.965535583E0,1.862484526E1
7.339327292E0,1.541806453E1,3.591466858E0,9.849054723E0,1.864454953E1
7.349264292E0,1.417473598E1,3.524857716E0,1.106763902E1,1.832594870E1
7.359200292E0,1.341491838E1,3.801275188E0,1.135087581E1,1.797921327E1
7.369136292E0,1.316554632E1,4.279841138E0,1.065572256E1,1.746977600E1
7.379072292E0,1.337024565E1,4.720209274E0,9.458526791E0,1.704428272E1
7.389008292E0,1.360708127E1,4.901653638E0,7.835965378E0,1.644935326E1
7.398945292E0,1.340858233E1,4.488683800E0,6.084309722E0,1.539341376E1
7.408881292E0,1.312978943E1,3.582149612E0,5.072058460E0,1.452408150E1
7.418817417E0,1.311007262E1,2.622614799E0,4.817971796E0,1.421143781E1
7.428753417E0,1.307569684E1,1.920736082E0,4.949271024E0,1.411234773E1
7.438689417E0,1.295779475E1,1.024273430E0,5.088021943E0,1.395856541E1
7.448626417E0,1.299947020E1,-1.513250640E-1,5.327109913E0,1.404945638E1
7.458562417E0,1.323211337E1,-1.447871460E0,5.844520086E0,1.453766044E1
7.468498417E0,1.335485812E1,-2.576601305E0,6.678953428E0,1.515254198E1
7.478434417E0,1.336233320E1,-3.519477108E0,7.324891248E0,1.563945969E1
7.488370417E0,1.376805161E1,-4.813543700E0,7.389577240E0,1.635039143E1
7.498306417E0,1.427863165E1,-6.255610921E0,7.252726082E0,1.719342972E1
7.508243417E0,1.450159885E1,-7.419797405E0,6.678176333E0,1.760533447E1
7.518179417E0,1.400122454E1,-8.422939875E0,5.933769647E0,1.738360800E1
7.528115417E0,1.310836757E1,-9.789252325E0,5.186150501E0,1.716260232E1
7.538051417E0,1.207453541E1,-1.141918649E1,4.398698952E0,1.719129948E1
7.547987417E0,1.082506728E1,-1.260652678E1,3.926684223E0,1.707411632E1
7.557924417E0,9.541613971E0,-1.350343938E1,3.669088061E0,1.693657224E1
7.567860417E0,8.661292850E0,-1.453850180E1,3.003172059E0,1.718735206E1
7.577796417E0,7.885925742E0,-1.524537637E1,2.209196187E0,1.730577572E1
7.587732417E0,6.802196946E0,-1.560035733E1,1.572291731E0,1.709131748E1
7.597668417E0,5.549514608E0,-1.619661662E1,9.193197101E-1,1.714563067E1
7.607605417E0,4.161863914E0,-1.711654035E1,7.345564663E-3,1.761525244E1
7.617541417E0,2.656015264E0,-1.757474220E1,-6.669895506E-1,1.778681690E1
7.627477417E0,1.185397551E0,-1.786052603E1,-1.457901481E0,1.795909336E1
7.637413417E0,1.018853939E-1,-1.830915248E1,-2.232321048E0,1.844501837E1
7.647349417E0,-8.005241686E-1,-1.821831248E1,-2.668028077E0,1.843003316E1
7.657285417E0,-1.476973637E0,-1.763813654E1,-2.984293154E0,1.794968850E1
7.667222417E0,-1.958094966E0,-1.683028055E1,-3.030713322E0,1.721271921E1
7.677158417E0,-2.600227857E0,-1.595504709E1,-2.860738564E0,1.641671519E1
7.687094417E0,-3.402705873E0,-1.526074052E1,-2.601857184E0,1.585049744E1
7.697030417E0,-4.434089517E0,-1.489976968E1,-2.148850144E0,1.569336940E1
7.706966417E0,-5.448289365E0,-1.465401237E1,-1.605875798E0,1.571632186E1
7.716903417E0,-6.414669805E0,-1.423292046E1,-1.074990279E0,1.564862989E1
7.726839417E0,-7.416212477E0,-1.370741248E1,-4.445573741E-1,1.559137568E1
7.736775417E0,-8.483545096E0,-1.314720946E1,4.007202137E-1,1.565184432E1
7.746711417E0,-9.192718799E0,-1.238878466E1,1.068540069E0,1.546382366E1
7.756647417E0,-9.298793138E0,-1.165907670E1,1.184803912E0,1.496012646E1
7.766583417E0,-9.298908913E0,-1.104367596E1,9.011429825E-1,1.446528757E1
7.776520417E0,-9.513565462E0,-1.036493585E1,4.758748419E-1,1.407715454E1
7.786456417E0,-9.801730283E0,-1.016065986E1,-1.000984848E-2,1.411782652E1
7.796392417E0,-9.892995379E0,-1.014831288E1,-2.183215839E-1,1.417417639E1
7.806328417E0,-9.921508741E0,-9.792563603E0,-1.363572152E-1,1.394091930E1
7.816264417E0,-9.784775112E0,-9.460276278E0,1.055770335E-1,1.361065016E1
7.826201417E0,-9.591524634E0,-9.391135876E0,3.262366265E-1,1.342747959E1
7.836137417E0,-9.424190186E0,-9.358831764E0,5.563361107E-1,1.329332925E1
7.846073417E0,-9.247052296E0,-9.235886453E0,7.554791196E-1,1.309123078E1
7.856009417E0,-8.958906187E0,-9.296033837E0,7.971403849E-1,1.293497885E1
7.865945417E0,-8.694034919E0,-9.527971832E0,6.897328806E-1,1.291681934E1
7.875882417E0,-8.329192636E0,-9.874556769E0,3.870364134E-1,1.292409063E1
7.885818417E0,-7.974953694E0,-1.022222870E1,-3.977743864E-2,1.296516210E1
7.895754417E0,-7.545395012E0,-1.061141938E1,-4.770579529E-1,1.302930510E1
7.905690417E0,-7.154379423E0,-1.113126141E1,-6.833548839E-1,1.324979620E1
7.915626417E0,-6.889077215E0,-1.171839553E1,-6.871122316E-1,1.361074215E1
7.925562417E0,-6.506093361E0,-1.242031635E1,-8.155281971E-1,1.404487790E1
7.935499417E0,-6.260751209E0,-1.293997478E1,-6.838266081E-1,1.439123246E1
7.945435417E0,-6.041527984E0,-1.348446516E1,-5.184584324E-1,1.478511617E1
7.955371417E0,-5.797371063E0,-1.419164496E1,-5.137515700E-1,1.533871698E1
7.965307417E0,-5.365685164E0,-1.495364358E1,-4.117591721E-1,1.589250072E1
7.975243417E0,-4.933053771E0,-1.561549577E1,-3.523093611E-1,1.637995267E1
7.985180417E0,-4.237531562E0,-1.639902968E1,-4.705995570E-1,1.694421176E1
7.995116417E0,-3.165529357E0,-1.727507357E1,-7.099087713E-1,1.757705076E1
8.005052417E0,-1.807318810E0,-1.803159685E1,-1.344247981E0,1.817173324E1
8.014988417E0,-2.872696120E-1,-1.804117693E1,-2.054842119E0,1.816009265E1
8.024924417E0,1.317923232E0,-1.800678361E1,-2.451675104E0,1.822064456E1
8.034861417E0,3.073558502E0,-1.817733870E1,-2.429970678E0,1.859481545E1
8.044797417E0,5.132871256E0,-1.816675290E1,-2.022271228E0,1.898596480E1
8.054733417E0,7.544044890E0,-1.751454511E1,-1.251547394E0,1.911120809E1
8.064669417E0,1.037375228E1,-1.635176313E1,-1.126516382E0,1.939752389E1
8.074605417E0,1.410565230E1,-1.544627735E1,-1.106341441E0,2.094709770E1
8.084541417E0,1.816691779E1,-1.339147104E1,4.546631169E-1,2.257377056E1
8.094478417E0,2.173435552E1,-9.973474116E0,3.148418065E0,2.411980373E1
8.104414417E0,2.367600066E1,-6.267898260E0,6.017255023E0,2.521997054E1
8.114350417E0,2.322778351E1,-2.718248935E0,7.511303991E0,2.456294958E1
8.124286417E0,2.099188777E1,-1.273623849E0,6.302173469E0,2.195447244E1
8.134222417E0,1.830534945E1,-1.627152939E0,4.270358416E0,1.886715152E1
8.144159417E0,1.546244256E1,-1.043974162E0,2.611641330E0,1.571615991E1
8.154095417E0,1.466458881E1,-1.323622513E-1,9.942371607E-2,1.466552317E1
8.164031417E0,1.538662055E1,1.088823183E0,-1.994596210E0,1.555352184E1
8.173967417E0,1.642383825E1,2.391716439E0,-2.788050072E0,1.682961656E1
8.183903417E0,1.780109376E1,3.205828660E0,-2.756058201E0,1.829623276E1
8.193839417E0,1.880227274E1,4.773462498E0,-1.871159733E0,1.948878249E1
8.203776417E0,1.923260676E1,6.832321801E0,-4.143603060E-1,2.041434492E1
8.213712417E0,1.972706486E1,7.923787048E0,6.802212149E-1,2.126984227E1
8.223648417E0,2.019919244E1,8.056616492E0,1.240928850E0,2.178201893E1
8.233584417E0,2.012353415E1,7.863173057E0,2.078866428E0,2.170501791E1
8.243520417E0,1.941631341E1,7.413283607E0,3.105871385E0,2.101419609E1
8.253457417E0,1.820817107E1,6.576467525E0,3.709454899E0,1.971160761E1
8.263393417E0,1.683784451E1,5.331514621E0,3.889425765E0,1.808495752E1
8.273329417E0,1.551671057E1,3.887999921E0,3.971366891E0,1.648200853E1
8.283265417E0,1.469135503E1,2.448861862E0,3.790804579E0,1.536889835E1
8.293201417E0,1.426439719E1,1.449222167E0,3.569868997E0,1.477556215E1
8.303138417E0,1.402082207E1,9.364538062E-1,3.607563073E0,1.450775339E1
8.313074417E0,1.387999655E1,5.679564285E-1,3.863935413E0,1.441897624E1
8.323010417E0,1.361096850E1,-5.802542925E-2,4.045675646E0,1.419962401E1
8.332946417E0,1.321549441E1,-1.271788700E0,3.978841094E0,1.385993923E1
8.342882417E0,1.264780344E1,-2.519530141E0,4.028325495E0,1.351082419E1
8.352818417E0,1.194173578E1,-3.703721996E0,3.856900628E0,1.308427654E1
8.362755417E0,1.123719424E1,-5.124339584E0,3.613852923E0,1.286830694E1
8.372691417E0,1.048187315E1,-6.554719976E0,3.470257878E0,1.284043256E1
8.382627417E0,9.703435079E0,-7.844575403E0,3.548653837E0,1.297254638E1
8.392563417E0,8.658021333E0,-8.460529286E0,3.699102988E0,1.265801138E1
8.402499417E0,8.057345055E0,-9.208485816E0,3.559385817E0,1.274308627E1
8.412436417E0,7.899291893E0,-1.012588998E1,3.320491389E0,1.326492078E1
8.422372542E0,7.823038938E0,-1.075547723E1,3.025592623E0,1.363944425E1
8.432308542E0,7.635782441E0,-1.109136819E1,2.874781821E0,1.376909556E1
8.442244542E0,7.326329078E0,-1.154689670E1,2.573368672E0,1.391503315E1
8.452180542E0,6.861620445E0,-1.197274357E1,2.445461414E0,1.401458901E1
8.462116542E0,6.607203999E0,-1.211040223E1,2.223080108E0,1.397351323E1
8.472053542E0,6.335416644E0,-1.246222218E1,1.739591388E0,1.408796166E1
8.481989542E0,5.782854180E0,-1.294350767E1,1.187897820E0,1.422627479E1
8.491925542E0,4.625211900E0,-1.329094454E1,1.054604985E0,1.411219273E1
8.501861542E0,3.707232957E0,-1.384025654E1,8.646675396E-1,1.435423029E1
8.511797542E0,2.722764739E0,-1.456570655E1,4.024515742E-1,1.482346864E1
8.521734542E0,1.448470507E0,-1.461227612E1,4.063580990E-2,1.468394808E1
8.531670542E0,5.008593366E-1,-1.447164590E1,-4.922766472E-1,1.448867597E1
8.541606542E0,-2.314459518E-1,-1.467187328E1,-1.028589699E0,1.470970528E1
8.551542542E0,-8.213724160E-1,-1.500994057E1,-1.587251978E0,1.511596300E1
8.561478542E0,-1.259487913E0,-1.491294579E1,-2.099403019E0,1.511256944E1
8.571415542E0,-1.589158609E0,-1.428541676E1,-2.374651340E0,1.456837417E1
8.581351542E0,-1.913497229E0,-1.364554192E1,-2.453226809E0,1.399573534E1
8.591287542E0,-2.378646158E0,-1.307949519E1,-2.410165135E0,1.351073825E1
8.601223542E0,-2.864715255E0,-1.270858642E1,-1.963985744E0,1.317467276E1
8.611159542E0,-3.324958662E0,-1.260431653E1,-1.299422495E0,1.310010092E1
8.621095542E0,-4.025132331E0,-1.250510799E1,-8.226149493E-1,1.316267874E1
8.631032542E0,-4.898464859E0,-1.241208230E1,-6.483088660E-1,1.335945543E1
8.640968542E0,-5.742996635E0,-1.236150973E1,-6.777424340E-1,1.364728061E1
8.650904542E0,-6.514250811E0,-1.228906624E1,-9.418116099E-1,1.394071812E1
8.660840542E0,-7.245080847E0,-1.194181764E1,-9.469648341E-1,1.399981955E1
8.670776542E0,-7.782033584E0,-1.130143292E1,-7.773014400E-1,1.374360325E1
8.680713542E0,-8.109435561E0,-1.034295500E1,-7.107630495E-1,1.316225084E1
8.690649542E0,-8.491954561E0,-9.525790236E0,-6.050190415E-1,1.277575907E1
8.700585542E0,-8.924015266E0,-9.108123622E0,-7.735188031E-1,1.277475228E1
8.710521542E0,-9.361686959E0,-8.819274677E0,-1.019090751E0,1.290191205E1
8.720457542E0,-9.996223294E0,-8.751713609E0,-1.013713651E0,1.332458579E1
8.730393542E0,-1.068686717E1,-9.028667563E0,-9.553999543E-1,1.402279419E1
8.740330542E0,-1.141075481E1,-9.337841429E0,-9.000952345E-1,1.477195922E1
8.750266542E0,-1.178999937E1,-9.797881646E0,-7.194531083E-1,1.534666682E1
8.760202542E0,-1.169084813E1,-1.026521042E1,-6.000068082E-1,1.556953702E1
8.770138542E0,-1.115612143E1,-1.056357278E1,-3.519849137E-1,1.536788888E1
8.780074542E0,-1.030103280E1,-1.084768782E1,2.839641809E-2,1.495942559E1
8.790011542E0,-9.246494472E0,-1.118702864E1,3.748130284E-1,1.451853142E1
8.799947542E0,-8.175181653E0,-1.148625406E1,4.328741256E-1,1.410514117E1
8.809883542E0,-7.295941098E0,-1.174861161E1,3.010596123E-1,1.383297756E1
8.819819542E0,-6.741760710E0,-1.207431087E1,9.707890950E-2,1.382930746E1
8.829755542E0,-6.390657045E0,-1.262794630E1,-1.606375589E-1,1.415384505E1
8.839692542E0,-6.081159242E0,-1.337278334E1,-4.445077459E-1,1.469725890E1
8.849628542E0,-5.820165263E0,-1.417771573E1,-7.858792323E-1,1.534599469E1
8.859564542E0,-5.300243711E0,-1.501492474E1,-1.007522692E0,1.595480023E1
8.869500542E0,-4.740267271E0,-1.572160753E1,-1.209611894E0,1.646518260E1
8.879436542E0,-4.079159727E0,-1.647859041E1,-1.492610700E0,1.704146040E1
8.889372542E0,-3.267189341E0,-1.719227816E1,-1.962606970E0,1.760967861E1
8.899309542E0,-2.450888800E0,-1.761495935E1,-2.454740068E0,1.795325590E1
8.909245542E0,-1.705745657E0,-1.797379362E1,-2.845214791E0,1.827736503E1
8.919181542E0,-9.328291172E-1,-1.843029510E1,-3.205352404E0,1.873019572E1
8.929117542E0,-3.383105421E-1,-1.898679800E1,-3.171217529E0,1.925278091E1
8.939053542E0,3.404284036E-1,-1.954249165E1,-2.669305401E0,1.972688680E1
8.948990542E0,1.920583470E0,-2.001507297E1,-2.186855438E0,2.022558092E1
8.958926542E0,4.521575850E0,-2.001779544E1,-1.468310695E0,2.057456485E1
8.968862542E0,8.096701494E0,-1.904973743E1,1.558130944E-1,2.069959780E1
8.978798542E0,1.229279559E1,-1.730308991E1,1.523011982E0,2.127978641E1
8.988734542E0,1.674548774E1,-1.457943347E1,3.107680514E0,2.241938710E1
8.998670542E0,2.085852915E1,-1.038291019E1,5.390605413E0,2.391530241E1
9.008607542E0,2.270164403E1,-6.767588446E0,7.339249671E0,2.479978792E1
9.018543542E0,2.222805465E1,-4.556995359E0,8.269421228E0,2.415027842E1
9.028479542E0,2.084755510E1,-4.255474036E0,7.193482093E0,2.246053867E1
9.038415542E0,1.940081712E1,-4.632373278E0,5.471794587E0,2.068311203E1
9.048351542E0,1.825628196E1,-4.353291814E0,4.518262525E0,1.930434347E1
9.058288542E0,1.771943272E1,-3.690602306E0,4.771871471E0,1.871816227E1
9.068224542E0,1.777611797E1,-2.748692171E0,5.795597602E0,1.889800598E1
9.078160542E0,1.852391604E1,-2.157895348E0,6.524208620E0,1.975746127E1
9.088096542E0,1.923591511E1,-8.193735453E-1,7.144627436E0,2.053624855E1
9.098032542E0,1.968277805E1,1.219076343E0,7.234086328E0,2.100547319E1
9.107969542E0,2.046302583E1,3.091862918E0,6.812979797E0,2.178788048E1
9.117905542E0,2.064969234E1,4.472953036E0,6.484932287E0,2.210139021E1
9.127841542E0,1.977121601E1,5.175346016E0,6.324042056E0,2.139342649E1
9.137777542E0,1.852496152E1,4.862123829E0,5.862140086E0,2.002945665E1
9.147713542E0,1.701882051E1,4.134272950E0,5.202419794E0,1.827012961E1
9.157649542E0,1.526347584E1,3.731538078E0,4.742408521E0,1.641305913E1
9.167586542E0,1.377171898E1,3.277720176E0,4.436262635E0,1.483523237E1
9.177522542E0,1.273602857E1,2.462154045E0,4.164499547E0,1.362393786E1
9.187458542E0,1.231823566E1,1.577321213E0,4.207086280E0,1.311207256E1
9.197394542E0,1.236423921E1,9.127167419E-1,4.538373439E0,1.320243525E1
9.207330542E0,1.245250410E1,5.955532399E-1,5.028376250E0,1.344262288E1
9.217266542E0,1.247605786E1,2.193504015E-1,5.297596677E0,1.355598262E1
9.227203542E0,1.245325372E1,-8.084044611E-1,5.096810893E0,1.348015308E1
9.237139542E0,1.234084567E1,-1.921585244E0,4.542829017E0,1.329008116E1
9.247075542E0,1.231328658E1,-3.020658450E0,3.968110576E0,1.328485248E1
9.257011542E0,1.204954674E1,-3.955535262E0,3.949528125E0,1.328294427E1
9.266947542E0,1.142722524E1,-4.956167815E0,4.112306715E0,1.311701729E1
9.276884542E0,1.060924187E1,-6.391407827E0,3.973690574E0,1.300754873E1
9.286820542E0,9.801123927E0,-7.367147906E0,3.933050671E0,1.287655956E1
9.296756542E0,9.209073461E0,-8.067833791E0,3.699776295E0,1.279004772E1
9.306692542E0,8.700339972E0,-8.931177521E0,3.322247601E0,1.290345600E1
9.316628542E0,8.469165623E0,-9.770155903E0,2.844149428E0,1.323902937E1
9.326565542E0,8.062480080E0,-1.021993192E1,2.536864212E0,1.326221224E1
9.336501542E0,7.724734379E0,-1.047366482E1,2.161494017E0,1.319246878E1
9.346437542E0,7.488658894E0,-1.116887888E1,1.346363504E0,1.351430954E1
9.356373542E0,6.924024269E0,-1.166495198E1,6.916215312E-1,1.358276692E1
9.366309542E0,6.460960457E0,-1.242733535E1,1.795902121E-1,1.400767384E1
9.376245542E0,5.476419734E0,-1.307013263E1,5.313244995E-1,1.418103825E1
9.386182542E0,4.660933710E0,-1.339006303E1,7.487736788E-1,1.419784326E1
9.396118542E0,3.718317524E0,-1.373971367E1,4.903980830E-1,1.424240524E1
9.406054542E0,2.485809833E0,-1.411692106E1,1.847898486E-1,1.433530111E1
9.415990542E0,1.257852446E0,-1.433523504E1,-1.321707550E-1,1.439092163E1
9.425927542E0,3.475292623E-3,-1.443667020E1,-4.841205123E-1,1.444478560E1
9.435864542E0,-9.058503565E-1,-1.467029921E1,-9.653460681E-1,1.472990620E1
9.445800542E0,-1.659827180E0,-1.489332838E1,-1.524742173E0,1.506290461E1
9.455736542E0,-2.198691080E0,-1.478833110E1,-1.785917416E0,1.505717371E1
9.465672542E0,-2.582738835E0,-1.424310982E1,-1.974174517E0,1.460938336E1
9.475608542E0,-2.988238270E0,-1.351223943E1,-2.064991570E0,1.399193956E1
9.485545542E0,-3.318904747E0,-1.311191449E1,-2.050112160E0,1.367992654E1
9.495481542E0,-3.890652511E0,-1.284967272E1,-1.894366894E0,1.355875702E1
9.505417542E0,-4.650927663E0,-1.252530662E1,-1.853995378E0,1.348894854E1
9.515353542E0,-5.335376707E0,-1.227385880E1,-1.734175989E0,1.349522956E1
9.525289542E0,-6.194564236E0,-1.202591698E1,-1.509382707E0,1.361152237E1
9.535225542E0,-7.075388217E0,-1.170965629E1,-1.469216428E0,1.375993334E1
9.545162542E0,-7.555397844E0,-1.137558264E1,-1.410778770E0,1.372873678E1
9.555098542E0,-7.590694562E0,-1.092986810E1,-1.340487637E0,1.337451187E1
9.565034542E0,-7.714341538E0,-1.023598252E1,-1.301972612E0,1.288338218E1
9.574970542E0,-7.986727062E0,-9.426968783E0,-1.090536125E0,1.240341964E1
9.584906542E0,-8.596270643E0,-8.557616454E0,-1.024498987E0,1.217284956E1
9.594843542E0,-9.320369364E0,-7.962702023E0,-1.348557379E0,1.233257944E1
9.604779542E0,-1.001165410E1,-7.775254907E0,-2.207974704E0,1.286712706E1
9.614715542E0,-1.053526641E1,-7.690135819E0,-3.015167037E0,1.338735446E1
9.624651542E0,-1.108985376E1,-7.510597063E0,-3.268770136E0,1.378690621E1
9.634587542E0,-1.169203161E1,-7.444326475E0,-3.151961478E0,1.421465655E1
9.644523542E0,-1.225235040E1,-7.734348956E0,-2.989227619E0,1.479444916E1
9.654460542E0,-1.257569792E1,-8.320207220E0,-2.805369524E0,1.533767011E1
9.664396542E0,-1.240387749E1,-8.992036511E0,-2.543639966E0,1.553006766E1
9.674332542E0,-1.177966968E1,-9.607793342E0,-2.451226476E0,1.539736412E1
9.684268542E0,-1.098797071E1,-1.018091111E1,-2.368607073E0,1.516564376E1
9.694204542E0,-1.005424755E1,-1.078219667E1,-2.293398432E0,1.491989729E1
9.704141542E0,-8.930132623E0,-1.123599673E1,-2.246859857E0,1.452732840E1
9.714077542E0,-7.919157808E0,-1.152242259E1,-2.347010236E0,1.417701449E1
9.724013542E0,-7.159630222E0,-1.187675684E1,-2.483071582E0,1.408841022E1
9.733949542E0,-6.487037870E0,-1.225086755E1,-2.602077039E0,1.410447521E1
9.743885542E0,-5.859988310E0,-1.284135447E1,-2.715086176E0,1.437398833E1
9.753822542E0,-5.205681370E0,-1.370524550E1,-2.631777971E0,1.489493632E1
9.763758542E0,-4.449009565E0,-1.449930089E1,-2.465193720E0,1.536556516E1
9.773694542E0,-3.703141368E0,-1.519206263E1,-2.056524217E0,1.577153495E1
9.783630542E0,-3.077128227E0,-1.576273334E1,-1.599877140E0,1.613976726E1
9.793566542E0,-2.363960291E0,-1.627348178E1,-1.250292581E0,1.649174790E1
9.803502542E0,-1.411215557E0,-1.640559377E1,-1.163812262E0,1.650725583E1
9.813439542E0,-3.464036733E-1,-1.625476367E1,-1.325340425E0,1.631238378E1
9.823375542E0,6.728648329E-1,-1.579555376E1,-1.616866225E0,1.589234161E1
9.833311542E0,2.038723539E0,-1.605642144E1,-2.331064148E0,1.635233693E1
9.843247542E0,3.228297463E0,-1.641060600E1,-2.344614486E0,1.688866812E1
9.853183542E0,4.772121440E0,-1.585399434E1,-1.484663310E0,1.662307146E1
9.863120542E0,6.289296146E0,-1.509268920E1,-3.167416254E-1,1.635374081E1
9.873056542E0,7.844062017E0,-1.406710629E1,5.612318382E-1,1.611607177E1
9.882992542E0,1.019004563E1,-1.323916979E1,1.221258524E0,1.675124231E1
9.892928542E0,1.264860568E1,-1.197109114E1,3.094219639E0,1.768808763E1
9.902864542E0,1.482107785E1,-9.736985818E0,5.138637196E0,1.846290426E1
9.912800542E0,1.696632070E1,-8.460544488E0,5.537273462E0,1.975090500E1
9.922737542E0,1.821120811E1,-7.386883428E0,4.644259790E0,2.019364496E1
9.932673542E0,1.824354088E1,-6.506861100E0,3.625298263E0,1.970555284E1
9.942609542E0,1.757275648E1,-5.881310182E0,4.181626334E0,1.899677811E1
9.952545542E0,1.691006113E1,-4.244756967E0,5.587418599E0,1.830812322E1
9.962481542E0,1.708782818E1,-2.601333565E0,6.672428520E0,1.852787388E1
9.972418542E0,1.837649604E1,-3.946300462E-1,7.286187358E0,1.977219931E1
9.982354542E0,1.971302218E1,1.898726578E0,7.533446227E0,2.118870497E1
9.992290542E0,2.103716627E1,3.503525904E0,7.384238148E0,2.256909461E1
1.000222654E1,2.210268099E1,4.967699693E0,6.645766971E0,2.360874342E1
1.001216254E1,2.182619189E1,6.854627175E0,5.645141727E0,2.356345032E1
1.002209854E1,2.074813606E1,7.509390197E0,4.990873379E0,2.262266360E1
1.003203554E1,1.919981090E1,6.731327523E0,4.819323380E0,2.090859600E1
1.004197154E1,1.735851450E1,6.079034364E0,5.312938017E0,1.914418959E1
1.005190754E1,1.581932269E1,5.679047391E0,5.754063660E0,1.776546645E1
1.006184354E1,1.487505466E1,4.802405339E0,5.836431633E0,1.668515156E1
1.007177954E1,1.419881482E1,3.769542933E0,5.652108099E0,1.574046131E1
1.008171654E1,1.356469715E1,3.204631735E0,5.495720809E0,1.498244374E1
1.009165254E1,1.295927878E1,3.015244805E0,5.140446324E0,1.426389835E1
1.010158854E1,1.263562486E1,2.445710506E0,4.537831987E0,1.364670051E1
1.011152454E1,1.265106970E1,1.289002611E0,4.061764845E0,1.334949534E1
1.012146054E1,1.240680460E1,1.390847951E-2,3.983699253E0,1.303068892E1
1.013139654E1,1.219323856E1,-1.257256615E0,4.078869997E0,1.291870509E1
1.014133354E1,1.179740545E1,-2.407971552E0,4.254279450E0,1.277012122E1
1.015126954E1,1.142786376E1,-3.488601471E0,4.311724251E0,1.270265234E1
1.016120554E1,1.088444342E1,-4.518059335E0,4.239936815E0,1.252441747E1
1.017114154E1,1.048061249E1,-5.525158031E0,3.894192123E0,1.247138090E1
1.018107754E1,1.018833707E1,-6.537083604E0,3.512558683E0,1.260451280E1
1.019101454E1,1.005245597E1,-7.362423356E0,3.284777473E0,1.288591912E1
1.020095054E1,1.015102716E1,-8.093334668E0,3.085266382E0,1.334407311E1
1.021088654E1,1.025740321E1,-8.833226134E0,2.820679874E0,1.382738007E1
1.022082254E1,1.003871852E1,-9.553867396E0,2.802041874E0,1.413873015E1
1.023075854E1,9.644572914E0,-1.008874846E1,3.004036862E0,1.427672476E1
1.024069554E1,9.235534451E0,-1.076973859E1,2.955062923E0,1.449188610E1
1.025063154E1,8.591257825E0,-1.107136838E1,2.722776434E0,1.427579841E1
1.026056754E1,8.207096341E0,-1.187729011E1,1.927744847E0,1.456511761E1
1.027050354E1,7.307765338E0,-1.236836267E1,1.607959161E0,1.445563427E1
1.028043954E1,6.252135336E0,-1.264250119E1,1.417780519E0,1.417505323E1
1.029037554E1,5.279991880E0,-1.341847348E1,1.272171985E0,1.447591677E1
1.030031254E1,4.020106357E0,-1.388591861E1,1.241376455E0,1.450934204E1
1.031024854E1,2.945906768E0,-1.425821317E1,9.625420359E-1,1.459114446E1
1.032018454E1,2.041517923E0,-1.480641303E1,6.668907326E-1,1.496136376E1
1.033012054E1,1.086624337E0,-1.492261358E1,4.762878746E-1,1.496970269E1
1.034005654E1,4.192681664E-1,-1.516599457E1,6.105370224E-2,1.517191170E1
1.034999354E1,-3.454423910E-1,-1.512358121E1,-4.218622836E-1,1.513340698E1
1.035992954E1,-1.261829430E0,-1.486093949E1,-8.554589058E-1,1.493892720E1
1.036986554E1,-2.362622448E0,-1.510874916E1,-1.208292177E0,1.534002139E1
1.037980154E1,-3.697263747E0,-1.522609226E1,-1.446775399E0,1.573520904E1
1.038973754E1,-4.869398643E0,-1.494635561E1,-1.591308630E0,1.579990039E1
1.039967354E1,-5.689173599E0,-1.452203370E1,-1.852754599E0,1.570633180E1
1.040961054E1,-6.424475001E0,-1.400828797E1,-1.891083097E0,1.552682216E1
1.041954654E1,-6.985829338E0,-1.348918971E1,-1.768683332E0,1.529340679E1
1.042948158E1,-7.625877843E0,-1.288455253E1,-1.668983043E0,1.506489997E1
1.043941758E1,-8.184215017E0,-1.227480488E1,-1.535011053E0,1.483268247E1
1.044935358E1,-8.563149090E0,-1.177522111E1,-1.384788482E0,1.462535448E1
1.045929058E1,-8.953004592E0,-1.112025344E1,-1.201981278E0,1.432693571E1
1.046922658E1,-9.337593507E0,-1.033541209E1,-7.151396904E-1,1.394714380E1
1.047916258E1,-9.652467239E0,-9.449770001E0,-4.400919286E-1,1.351524908E1
1.048909858E1,-1.012961115E1,-8.561238220E0,-2.509134523E-1,1.326524705E1
1.049903458E1,-1.086412785E1,-8.153646943E0,-2.075990329E-1,1.358507747E1
1.050897058E1,-1.172019881E1,-7.966520255E0,-3.516457387E-1,1.417575959E1
1.051890758E1,-1.233664269E1,-7.853579530E0,-8.228312963E-1,1.464747472E1
1.052884358E1,-1.261795809E1,-7.812496408E0,-1.667192625E0,1.493410518E1
1.053877958E1,-1.274818727E1,-7.713436974E0,-2.113395406E0,1.504924679E1
1.054871558E1,-1.266173736E1,-7.693940018E0,-2.059634351E0,1.495855607E1
1.055865158E1,-1.217292066E1,-7.738543164E0,-1.791364682E0,1.453526866E1
1.056858858E1,-1.141215229E1,-8.105643641E0,-1.319325979E0,1.405984708E1
1.057852458E1,-1.064818667E1,-8.566812955E0,-8.780295968E-1,1.369471064E1
1.058846058E1,-1.007668098E1,-8.958009809E0,-5.652995268E-1,1.349462867E1
1.059839658E1,-9.500573534E0,-9.480908763E0,-2.790975434E-1,1.342484353E1
1.060833258E1,-9.055309231E0,-1.005480889E1,-9.260754369E-2,1.353168072E1
1.061826858E1,-8.754938933E0,-1.075770970E1,-1.376346125E-1,1.387069634E1
1.062820558E1,-8.498244996E0,-1.141685462E1,-2.803224619E-1,1.423528427E1
1.063814158E1,-8.144644570E0,-1.207634453E1,-3.804829272E-1,1.457113927E1
1.064807758E1,-7.677357314E0,-1.285701682E1,-4.711879331E-1,1.498221329E1
1.065801358E1,-7.191018661E0,-1.355182742E1,-6.635063642E-1,1.535587889E1
1.066794958E1,-6.595182123E0,-1.433026374E1,-7.900149679E-1,1.579484123E1
1.067788658E1,-5.893440231E0,-1.513642520E1,-8.108673084E-1,1.626350244E1
1.068782258E1,-5.200498399E0,-1.584261098E1,-7.708138081E-1,1.669214367E1
1.069775858E1,-4.324489015E0,-1.665060380E1,-6.790682171E-1,1.721641501E1
1.070769458E1,-3.290342268E0,-1.730514813E1,-6.296761286E-1,1.762642891E1
1.071763058E1,-2.069656479E0,-1.747970039E1,-7.285819276E-1,1.761687359E1
1.072756758E1,-3.748667496E-1,-1.774626208E1,-6.746103729E-1,1.776303584E1
1.073750358E1,1.328933539E0,-1.784592437E1,-7.615454596E-1,1.791153350E1
1.074743958E1,3.408353698E0,-1.771986073E1,-8.679373026E-1,1.806553776E1
1.075737558E1,5.647847233E0,-1.685015290E1,-6.473405671E-1,1.778327531E1
1.076731158E1,7.906153015E0,-1.549274400E1,-6.886593318E-1,1.740708545E1
1.077724758E1,1.047306373E1,-1.502119062E1,-6.468116865E-1,1.832319832E1
1.078718458E1,1.281979345E1,-1.325001754E1,6.753224176E-1,1.844901431E1
1.079712058E1,1.530295157E1,-1.013191495E1,2.481202812E0,1.852005385E1
1.080705658E1,1.688156999E1,-7.401099179E0,4.402401409E0,1.895111639E1
1.081699258E1,1.749718356E1,-6.446913106E0,5.002688262E0,1.930650178E1
1.082692858E1,1.774131417E1,-7.698064059E0,3.952878579E0,1.973929248E1
1.083686558E1,1.659838348E1,-8.156142535E0,3.783789090E0,1.887713048E1
1.084680158E1,1.475310397E1,-6.392958509E0,4.617504393E0,1.672857860E1
1.085673758E1,1.361952999E1,-4.083848316E0,5.755603817E0,1.533937383E1
1.086667358E1,1.268728151E1,-1.817078397E0,6.356856045E0,1.430658955E1
1.087660958E1,1.191808263E1,2.243594187E-1,5.600155588E0,1.317014705E1
1.088654558E1,1.170867395E1,1.775060890E0,3.683555242E0,1.240211539E1
1.089648258E1,1.194307246E1,2.480678025E0,1.716842503E0,1.231820975E1
1.090641858E1,1.335213682E1,1.921547091E0,6.139517963E-2,1.348983582E1
1.091635458E1,1.528483222E1,1.688265114E0,-4.509222145E-1,1.538439683E1
1.092629058E1,1.676476601E1,2.835123958E0,5.730853137E-1,1.701245820E1
1.093622658E1,1.808259159E1,3.709760416E0,2.292622798E0,1.860103654E1
1.094616358E1,1.883864827E1,4.301193708E0,4.459310020E0,1.983129803E1
1.095609958E1,1.891815754E1,4.903932006E0,6.175291228E0,2.049583995E1
1.096603558E1,1.859805288E1,4.890153042E0,7.181945536E0,2.052757924E1
1.097597158E1,1.801512875E1,4.225966647E0,7.330144971E0,1.990313250E1
1.098590758E1,1.734830409E1,3.381094564E0,6.473866432E0,1.882302850E1
1.099584358E1,1.687097132E1,2.898542275E0,5.052381409E0,1.784818698E1
1.100578058E1,1.636077486E1,2.746233124E0,3.779716212E0,1.701478783E1
1.101571658E1,1.573181209E1,2.288581203E0,2.906743872E0,1.616096147E1
1.102565258E1,1.521204841E1,1.549583192E0,2.644071742E0,1.551769121E1
1.103558858E1,1.456323903E1,6.183138192E-1,2.962902285E0,1.487444227E1
1.104552458E1,1.380064867E1,-1.574058759E-1,3.588316086E0,1.426038894E1
1.105546158E1,1.311887853E1,-9.842349136E-1,4.109105072E0,1.378254101E1
1.106539758E1,1.265863717E1,-2.172222489E0,4.196608654E0,1.351188994E1
1.107533358E1,1.220840624E1,-3.506684570E0,3.991551187E0,1.331444706E1
1.108526958E1,1.156101539E1,-4.349846050E0,3.775539838E0,1.291638256E1
1.109520558E1,1.126510534E1,-5.309739005E0,3.282371636E0,1.287904850E1
1.110514158E1,1.124946989E1,-6.616518613E0,2.799008338E0,1.334778405E1
1.111507858E1,1.096408366E1,-7.412507681E0,2.730282212E0,1.351335790E1
1.112501458E1,1.059539567E1,-7.870569785E0,2.872710153E0,1.350780299E1
1.113495058E1,1.028106105E1,-8.670663013E0,3.094918381E0,1.380069321E1
1.114488658E1,9.724939969E0,-9.424265031E0,3.059281648E0,1.388345897E1
1.115482258E1,8.876067513E0,-1.001907070E1,2.580061687E0,1.363169361E1
1.116475958E1,7.829621149E0,-1.118533295E1,1.916250391E0,1.378719174E1
1.117469558E1,6.697254628E0,-1.246372725E1,1.387377629E0,1.421698045E1
1.118463158E1,5.945464663E0,-1.317120760E1,1.119215256E0,1.449420237E1
1.119456758E1,5.107496679E0,-1.329959491E1,7.210786343E-1,1.426484145E1
1.120450358E1,4.134497775E0,-1.342601171E1,3.904296988E-1,1.405362223E1
1.121443958E1,3.543833100E0,-1.358762876E1,1.371426424E-1,1.404283505E1
1.122437658E1,2.857660589E0,-1.368414290E1,7.183713734E-2,1.397952615E1
1.123431258E1,2.325769787E0,-1.400127132E1,5.523572266E-2,1.419323270E1
1.124424858E1,1.793692458E0,-1.406561525E1,1.029457864E-1,1.417989643E1
1.125418458E1,1.484362471E0,-1.400783072E1,-2.380892658E-1,1.408826959E1
1.126412058E1,1.387506560E0,-1.438835465E1,-8.935703266E-1,1.448269284E1
1.127405758E1,9.654273444E-1,-1.449068327E1,-1.317923232E0,1.458248515E1
1.128399358E1,3.556478289E-1,-1.409620905E1,-1.227053992E0,1.415398376E1
1.129392958E1,-2.412216192E-1,-1.386546272E1,-1.077157988E0,1.390933189E1
1.130386558E1,-1.187412501E0,-1.371648502E1,-1.154192423E0,1.381608012E1
1.131380158E1,-2.374619327E0,-1.363373054E1,-1.281464819E0,1.389818612E1
1.132373858E1,-3.590822787E0,-1.376434097E1,-1.501709406E0,1.430406312E1
1.133367458E1,-4.950907075E0,-1.385696086E1,-1.858337667E0,1.483173166E1
1.134361058E1,-6.426736119E0,-1.370516247E1,-2.106932479E0,1.528311421E1
1.135354658E1,-7.472926961E0,-1.330215716E1,-2.421044903E0,1.544841354E1
1.136348258E1,-7.963394918E0,-1.260253898E1,-2.582153236E0,1.512967821E1
1.137341858E1,-7.909784136E0,-1.168551781E1,-2.660004820E0,1.435937454E1
1.138335558E1,-7.935237066E0,-1.078859703E1,-2.659679130E0,1.365414612E1
1.139329158E1,-8.025109940E0,-1.007512913E1,-2.348025459E0,1.309289273E1
1.140322758E1,-8.219207094E0,-9.407595788E0,-1.943864744E0,1.264265929E1
1.141316358E1,-8.375244137E0,-8.866464631E0,-1.567312242E0,1.229696617E1
1.142310029E1,-8.850849057E0,-8.530018766E0,-1.213014316E0,1.235192912E1
1.143303729E1,-9.660685501E0,-8.258372329E0,-1.154438006E0,1.276175086E1
1.144297329E1,-1.062943465E1,-7.915700349E0,-1.551601943E0,1.334356255E1
1.145290929E1,-1.154058989E1,-7.777449367E0,-2.034860868E0,1.406465757E1
1.146284529E1,-1.230982970E1,-7.974434461E0,-2.436554058E0,1.486809698E1
1.147278129E1,-1.270142358E1,-8.316408868E0,-2.925160262E0,1.546109246E1
1.148271729E1,-1.264249651E1,-8.730530900E0,-3.296054413E0,1.571365211E1
1.149265429E1,-1.232911967E1,-9.064343764E0,-3.455871096E0,1.568797516E1
1.150259029E1,-1.167251594E1,-9.361917340E0,-3.365069100E0,1.533677980E1
1.151252629E1,-1.070667052E1,-9.673279819E0,-3.109733471E0,1.476060901E1
1.152246229E1,-9.931495786E0,-1.008079625E1,-2.828155539E0,1.443106113E1
1.153239829E1,-9.232125524E0,-1.075108246E1,-2.698219298E0,1.442561275E1
1.154233529E1,-8.698923191E0,-1.143484183E1,-2.588467644E0,1.459887109E1
1.155227129E1,-8.353408880E0,-1.197434570E1,-2.493127624E0,1.481148474E1
1.156220729E1,-8.049839569E0,-1.236974495E1,-2.412466015E0,1.495428031E1
1.157214329E1,-7.671891922E0,-1.278977618E1,-2.238363853E0,1.508133194E1
1.158207929E1,-7.244812460E0,-1.314685628E1,-1.973443030E0,1.514006655E1
1.159201529E1,-6.743686198E0,-1.356132096E1,-1.634134222E0,1.523342130E1
1.160195229E1,-6.194321576E0,-1.427502392E1,-1.379331421E0,1.562205117E1
1.161188829E1,-5.503125722E0,-1.526098025E1,-1.271433774E0,1.627262901E1
1.162182429E1,-4.674308047E0,-1.620610431E1,-1.030602749E0,1.689819856E1
1.163176029E1,-3.897468610E0,-1.682101271E1,-5.958599263E-1,1.727691463E1
1.164169629E1,-2.884406923E0,-1.736811563E1,-3.267777863E-1,1.760903256E1
1.165163329E1,-1.563605692E0,-1.780581714E1,-2.263369471E-2,1.787435311E1
1.166156929E1,6.751312137E-1,-1.785245687E1,6.061136037E-1,1.787549698E1
1.167150529E1,3.543655930E0,-1.709931445E1,1.822259030E0,1.755746793E1
1.168144129E1,6.601983604E0,-1.548904973E1,3.200314443E0,1.713881156E1
1.169137729E1,9.024147665E0,-1.304417801E1,3.995030572E0,1.635683619E1
1.170131329E1,1.074308698E1,-1.081778867E1,3.146591395E0,1.556725753E1
1.171125029E1,1.205957355E1,-9.139586905E0,1.673131642E0,1.522382122E1
1.172118629E1,1.288487062E1,-8.354633287E0,6.617981002E-1,1.537067874E1
1.173112229E1,1.298086319E1,-9.170366063E0,5.837725621E-1,1.590406279E1
1.174105829E1,1.214872488E1,-9.762327651E0,2.122543960E0,1.572894625E1
1.175099429E1,1.152195131E1,-9.377045256E0,3.659103355E0,1.529945676E1
1.176093129E1,1.122200201E1,-9.185429660E0,4.942549065E0,1.532103908E1
1.177086729E1,1.096291071E1,-8.776338573E0,6.306410362E0,1.539416583E1
1.178080329E1,1.107171804E1,-7.355767470E0,7.329854364E0,1.517949342E1
1.179073929E1,1.190980765E1,-4.858201225E0,7.453327678E0,1.486599243E1
1.180067529E1,1.316223680E1,-2.681114438E0,6.507860974E0,1.492598763E1
1.181061129E1,1.483308569E1,-1.773183934E0,4.807865469E0,1.569331650E1
1.182054829E1,1.597449025E1,-1.471901762E0,2.924949762E0,1.630662947E1
1.183048429E1,1.617272022E1,-7.417055646E-1,2.139742960E0,1.633050845E1
1.184042029E1,1.560778797E1,4.204551512E-1,2.752092619E0,1.585414273E1
1.185035629E1,1.461604640E1,1.720450527E0,3.903703788E0,1.522588801E1
1.186029229E1,1.383640673E1,2.524603770E0,4.699042354E0,1.482905171E1
1.187022929E1,1.334234975E1,2.608775901E0,4.862957058E0,1.443857195E1
1.188016529E1,1.301729368E1,3.146886387E0,4.938499283E0,1.427380832E1
1.189010129E1,1.297642749E1,4.073374199E0,4.582176978E0,1.435187770E1
1.190003729E1,1.378523658E1,4.067445415E0,3.541694481E0,1.480271798E1
1.190997329E1,1.457291734E1,3.835876379E0,2.863317478E0,1.533891959E1
1.191990929E1,1.465901876E1,4.274781834E0,2.932942321E0,1.554872153E1
1.192984629E1,1.448106694E1,4.826740866E0,3.238189198E0,1.560399296E1
1.193978229E1,1.410357186E1,4.923577774E0,3.738424636E0,1.539896672E1
1.194971829E1,1.352166164E1,4.700222614E0,3.982154419E0,1.485883508E1
1.195965429E1,1.292237700E1,4.148153948E0,3.658469810E0,1.405629431E1
1.196959029E1,1.249050399E1,3.236825627E0,2.823152369E0,1.320832765E1
1.197952729E1,1.227028147E1,2.339690545E0,1.803375447E0,1.262086060E1
1.198946329E1,1.218513315E1,1.575207152E0,1.079105988E0,1.233382411E1
1.199939929E1,1.216883345E1,6.818891332E-1,1.072318540E0,1.223500500E1
1.200933529E1,1.198576766E1,-1.094575381E-1,1.632868592E0,1.209697760E1
1.201927129E1,1.178434043E1,-7.927271989E-1,2.402361295E0,1.205281858E1
1.202920829E1,1.174135872E1,-1.677952672E0,3.087384244E0,1.225589537E1
1.203914429E1,1.194949387E1,-2.907214865E0,3.884229929E0,1.289688118E1
1.204908029E1,1.250023960E1,-4.448810467E0,4.552591821E0,1.402761551E1
1.205901629E1,1.325374806E1,-6.091677214E0,4.753165059E0,1.534154318E1
1.206895229E1,1.392433248E1,-7.396042507E0,5.001576122E0,1.654098678E1
1.207888829E1,1.436373554E1,-8.394142338E0,5.432252791E0,1.750108267E1
1.208882529E1,1.382499063E1,-9.245353096E0,5.934751979E0,1.765865796E1
1.209876129E1,1.268863806E1,-1.031898492E1,6.163677489E0,1.747781181E1
1.210869729E1,1.114107654E1,-1.144533758E1,5.958688141E0,1.704773601E1
1.211863329E1,9.959539032E0,-1.283881210E1,5.148261713E0,1.704500257E1
1.212856929E1,8.945839999E0,-1.389335861E1,4.161934665E0,1.704039809E1
1.213850529E1,7.912402520E0,-1.425791731E1,3.311818799E0,1.663918457E1
1.214844229E1,7.185922228E0,-1.496033630E1,2.279592278E0,1.675248285E1
1.215837829E1,5.923359264E0,-1.536712008E1,1.853244596E0,1.657314334E1
1.216831429E1,4.776507436E0,-1.571840793E1,1.915536738E0,1.653942720E1
1.217825029E1,3.885343239E0,-1.584367634E1,1.923626069E0,1.642614713E1
1.218818629E1,3.020720138E0,-1.598366453E1,1.573497427E0,1.634252662E1
1.219812329E1,1.852063458E0,-1.622225900E1,1.030168009E0,1.636010612E1
1.220805929E1,6.356291789E-1,-1.652998042E1,4.551493129E-1,1.654845727E1
1.221799529E1,-6.423528922E-1,-1.667723903E1,-9.788794488E-2,1.668989218E1
1.222793129E1,-1.854728911E0,-1.665454248E1,-7.035137446E-1,1.677226092E1
1.223786729E1,-3.044634373E0,-1.647275956E1,-1.554480673E0,1.682373372E1
1.224780429E1,-3.976037647E0,-1.635697768E1,-2.404618905E0,1.700416967E1
1.225774029E1,-5.029288416E0,-1.603760978E1,-3.046029811E0,1.708148023E1
1.226767629E1,-5.994296515E0,-1.529761891E1,-3.430819286E0,1.678449451E1
1.227761229E1,-6.515379324E0,-1.450554806E1,-3.255326510E0,1.623139682E1
1.228754829E1,-6.915316595E0,-1.376246518E1,-2.693515797E0,1.563592270E1
1.229748429E1,-7.223546137E0,-1.301602834E1,-1.931794336E0,1.501094407E1
1.230742129E1,-7.386741341E0,-1.228443641E1,-9.322707081E-1,1.436455549E1
1.231735729E1,-7.676214768E0,-1.163678478E1,-9.767298661E-2,1.394089571E1
1.232729329E1,-8.359658384E0,-1.110302637E1,-2.527217768E-2,1.389826326E1
1.233722929E1,-9.494374900E0,-1.069478196E1,-7.804816675E-1,1.432238345E1
1.234716529E1,-1.047654984E1,-1.023444705E1,-2.143293389E0,1.480188196E1
1.235710229E1,-1.086652053E1,-9.782121645E0,-3.840326110E0,1.511685407E1
1.236703829E1,-1.134061044E1,-9.202270811E0,-4.637952399E0,1.532324494E1
1.237697429E1,-1.194499268E1,-8.507703452E0,-4.907099150E0,1.546426494E1
1.238691029E1,-1.252358870E1,-8.090793468E0,-5.143749416E0,1.577210737E1
1.239684629E1,-1.282618211E1,-8.179269442E0,-5.074328349E0,1.603621540E1
1.240678229E1,-1.285153915E1,-8.490463521E0,-4.648495513E0,1.608908139E1
1.241671929E1,-1.264235033E1,-8.867075665E0,-4.109773993E0,1.597949608E1
1.242665517E1,-1.242331246E1,-9.225997642E0,-3.532514060E0,1.587250392E1
1.243659117E1,-1.183734193E1,-9.614146342E0,-3.146966786E0,1.557105886E1
1.244652717E1,-1.109117640E1,-9.908518567E0,-2.997756368E0,1.517166693E1
1.245646317E1,-1.018237291E1,-1.009603059E1,-2.789170983E0,1.460787550E1
1.246640017E1,-9.212757207E0,-1.022779759E1,-2.625677571E0,1.401345502E1
1.247633617E1,-8.298523405E0,-1.043488960E1,-2.624140338E0,1.358817589E1
1.248627217E1,-7.568291540E0,-1.071012038E1,-2.665942082E0,1.338256188E1
1.249620817E1,-6.966728824E0,-1.108346042E1,-2.734028231E0,1.337360519E1
1.250614417E1,-6.422196926E0,-1.155624055E1,-2.965173928E0,1.354930129E1
1.251608017E1,-6.001169332E0,-1.206724510E1,-3.020805507E0,1.381150620E1
1.252601717E1,-5.644188631E0,-1.272037909E1,-2.856037402E0,1.420640204E1
1.253595317E1,-5.317864881E0,-1.359889049E1,-2.709764040E0,1.485100437E1
1.254588917E1,-4.854091802E0,-1.442685389E1,-2.408261136E0,1.541090660E1
1.255582517E1,-4.352279077E0,-1.501168187E1,-1.975202896E0,1.575418523E1
1.256576117E1,-3.750599416E0,-1.558763379E1,-1.348141057E0,1.608908970E1
1.257569817E1,-2.906673120E0,-1.606032036E1,-7.398867881E-1,1.633799471E1
1.258563417E1,-2.048215324E0,-1.641923532E1,-1.495150584E-1,1.654716983E1
1.259557017E1,-1.176513584E0,-1.652036058E1,4.648466277E-1,1.656872295E1
1.260550617E1,-5.532869339E-2,-1.629220222E1,8.791323817E-1,1.631599792E1
1.261544217E1,1.084486595E0,-1.598573796E1,1.092366303E0,1.605967600E1
1.262537817E1,2.075369793E0,-1.537426772E1,1.179583957E0,1.555849241E1
1.263531517E1,3.300225817E0,-1.465659801E1,1.675042512E0,1.511665052E1
1.264525117E1,4.801252853E0,-1.456331270E1,2.400443408E0,1.552108999E1
1.265518717E1,6.711924123E0,-1.435185633E1,3.124206499E0,1.614888144E1
1.266512317E1,9.089711325E0,-1.362149115E1,4.436521667E0,1.696616037E1
1.267505917E1,1.142670601E1,-1.217361881E1,6.023097560E0,1.774948758E1
1.268499617E1,1.316846058E1,-1.032379367E1,7.061504003E0,1.816188064E1
1.269493217E1,1.424667311E1,-8.607764515E0,7.175393146E0,1.812588126E1
1.270486817E1,1.492866194E1,-7.790728394E0,6.172443634E0,1.793486706E1
1.271480417E1,1.548417315E1,-7.397063431E0,4.793620774E0,1.781726594E1
1.272474017E1,1.550923666E1,-6.527940313E0,4.186734169E0,1.734010292E1
1.273467617E1,1.514705310E1,-5.682927019E0,4.556095473E0,1.680734611E1
1.274461317E1,1.470392654E1,-4.194670595E0,5.367223567E0,1.620517837E1
1.275454917E1,1.436815603E1,-2.348813664E0,5.602161183E0,1.559952061E1
1.276448517E1,1.440960460E1,-1.369882467E0,4.890979254E0,1.527857850E1
1.277442117E1,1.456509961E1,-6.888204226E-1,4.014348019E0,1.512387484E1
1.278435717E1,1.482942299E1,-2.602888048E-3,3.512357831E0,1.523969982E1
1.279429417E1,1.589330985E1,8.380024821E-2,3.162597271E0,1.620513320E1
1.280423017E1,1.727992792E1,8.924406445E-1,3.402194826E0,1.763426463E1
1.281416617E1,1.791965892E1,2.686845294E0,4.093092472E0,1.857650989E1
1.282410217E1,1.816034669E1,4.463348107E0,4.901019800E0,1.933234759E1
1.283403817E1,1.805393438E1,5.605392939E0,5.627460916E0,1.972392692E1
1.284397417E1,1.757794413E1,6.183360386E0,6.290426413E0,1.966691460E1
1.285391117E1,1.682256105E1,6.071696693E0,6.185408081E0,1.892414686E1
1.286384717E1,1.575297199E1,5.335379630E0,5.145638652E0,1.740976736E1
1.287378317E1,1.467263341E1,4.417680768E0,3.667702271E0,1.575608183E1
1.288371917E1,1.396886254E1,3.796225240E0,2.442072076E0,1.468006004E1
1.289365517E1,1.366572183E1,3.423798534E0,1.640085518E0,1.418323764E1
1.290359217E1,1.380414530E1,2.900736442E0,1.322978442E0,1.416753230E1
1.291352817E1,1.408281308E1,2.286008428E0,1.666471079E0,1.436414232E1
1.292346417E1,1.434916077E1,1.631459998E0,2.368153914E0,1.463448767E1
1.293340017E1,1.429759534E1,7.709708789E-1,3.283888696E0,1.469011755E1
1.294333617E1,1.394816339E1,-1.442502254E-1,4.032379078E0,1.452006030E1
1.295327217E1,1.354464587E1,-1.442713339E0,4.104526117E0,1.422624294E1
1.296320917E1,1.308707669E1,-2.954237588E0,3.665427119E0,1.390807147E1
1.297314517E1,1.271015581E1,-4.459246286E0,3.286096605E0,1.386475276E1
1.298308117E1,1.227209177E1,-5.778112088E0,3.405168135E0,1.398520596E1
1.299301717E1,1.184500179E1,-6.932704461E0,3.965012429E0,1.428592951E1
1.300295317E1,1.195497856E1,-8.134713074E0,4.288178390E0,1.508255757E1
1.301289017E1,1.233119894E1,-9.375539598E0,4.423932319E0,1.610994684E1
1.302282617E1,1.246755951E1,-1.050943692E1,4.810242070E0,1.700078626E1
1.303276217E1,1.217901930E1,-1.129285155E1,5.318002290E0,1.743955721E1
1.304269817E1,1.167329011E1,-1.235466498E1,5.169074292E0,1.776577547E1
1.305263417E1,1.074857401E1,-1.328603288E1,4.768095924E0,1.774218847E1
1.306257017E1,9.671941976E0,-1.360427227E1,4.148270892E0,1.719973363E1
1.307250717E1,8.768579317E0,-1.386698416E1,3.027423971E0,1.668372047E1
1.308244317E1,7.374006105E0,-1.456413014E1,1.920191122E0,1.643706138E1
1.309237917E1,5.841486551E0,-1.530330240E1,1.260987139E0,1.642875887E1
1.310231517E1,4.571009966E0,-1.598632619E1,6.892984325E-1,1.664127066E1
1.311225117E1,3.252289758E0,-1.643383582E1,1.949689740E-1,1.675369694E1
1.312218817E1,2.658964015E0,-1.696125116E1,-4.479850119E-1,1.717424878E1
1.313212417E1,2.243967825E0,-1.735521199E1,-8.542497016E-1,1.752051705E1
1.314206017E1,1.587452976E0,-1.732504036E1,-5.559520948E-1,1.740649629E1
1.315199617E1,9.198599929E-1,-1.663040868E1,4.206369996E-1,1.666113954E1
1.316193217E1,3.312342417E-1,-1.589151008E1,1.337227814E0,1.595111240E1
1.317186817E1,-4.853779560E-1,-1.564699589E1,1.476576173E0,1.572400551E1
1.318180517E1,-1.628382024E0,-1.560313592E1,9.969223483E-1,1.571952076E1
1.319174117E1,-2.790645066E0,-1.560728745E1,2.706523367E-1,1.585712376E1
1.320167717E1,-4.038535611E0,-1.561251720E1,-4.608612386E-1,1.613297419E1
1.321161317E1,-5.104606985E0,-1.550040502E1,-1.239486342E0,1.636630364E1
1.322154917E1,-5.961275534E0,-1.494238418E1,-2.049077203E0,1.621759441E1
1.323148617E1,-6.667902190E0,-1.418581646E1,-2.700052400E0,1.590561508E1
1.324142217E1,-6.887240605E0,-1.339483085E1,-2.932996700E0,1.534464227E1
1.325135817E1,-6.803590338E0,-1.235290848E1,-2.545074872E0,1.433040807E1
1.326129417E1,-6.510900941E0,-1.121416674E1,-1.784875442E0,1.308950523E1
1.327123017E1,-6.074357761E0,-1.026758088E1,-8.704779178E-1,1.196155387E1
1.328116617E1,-5.857947047E0,-9.268140864E0,-1.127577980E-2,1.096421934E1
1.329110317E1,-6.116126177E0,-8.276812693E0,4.714101273E-1,1.030217721E1
1.330103917E1,-6.737463591E0,-7.801915287E0,3.951162422E-1,1.031597861E1
1.331097517E1,-7.768436469E0,-7.936259159E0,-1.566621101E-1,1.110663575E1
1.332091117E1,-9.001908950E0,-8.374347174E0,-9.294090807E-1,1.232995769E1
1.333084717E1,-1.019166531E1,-8.691541666E0,-1.672261577E0,1.349849610E1
1.334078417E1,-1.126782664E1,-8.766347435E0,-2.519203867E0,1.449686699E1
1.335072017E1,-1.167732586E1,-8.813052070E0,-3.104917120E0,1.495561220E1
1.336065617E1,-1.155954072E1,-8.785851992E0,-3.223312712E0,1.487292579E1
1.337059217E1,-1.090948236E1,-8.727177522E0,-2.898273010E0,1.426816104E1
1.338052817E1,-1.025945208E1,-8.758604552E0,-2.510209680E0,1.372117573E1
1.339046417E1,-9.654848810E0,-8.955476795E0,-2.164300096E0,1.334544361E1
1.340040117E1,-8.967008089E0,-9.232255917E0,-1.824488574E0,1.299886695E1
1.341033717E1,-8.537154708E0,-9.567527077E0,-1.599950815E0,1.292209068E1
1.342027317E1,-7.990615461E0,-1.002900980E1,-1.446745579E0,1.290441962E1
1.343020842E1,-7.746024091E0,-1.052569920E1,-1.364876373E0,1.313979149E1
1.344014442E1,-7.428564135E0,-1.115077590E1,-1.292784882E0,1.346085663E1
1.345008142E1,-7.154760076E0,-1.189916805E1,-1.183490481E0,1.393490014E1
1.346001742E1,-6.980461594E0,-1.268040518E1,-1.101109133E0,1.451660983E1
1.346995342E1,-6.729388586E0,-1.331434159E1,-1.138825355E0,1.496172737E1
1.347988942E1,-6.418564051E0,-1.387427798E1,-1.119065275E0,1.532794379E1
1.348982542E1,-6.077282538E0,-1.453092263E1,-1.056114589E0,1.578595748E1
1.349976142E1,-5.618277864E0,-1.523774108E1,-9.755307484E-1,1.626977134E1
1.350969842E1,-5.083586830E0,-1.597194437E1,-9.017406410E-1,1.678567837E1
1.351963442E1,-4.479149331E0,-1.665944479E1,-8.458786815E-1,1.727180911E1
1.352957042E1,-3.771476315E0,-1.724912479E1,-6.107521999E-1,1.766718308E1
1.353950642E1,-2.861619154E0,-1.756140821E1,-5.036572292E-1,1.780015711E1
1.354944242E1,-1.575775502E0,-1.764627470E1,-3.288386375E-1,1.771954328E1
1.355937942E1,-2.183759630E-1,-1.754786372E1,2.538919508E-2,1.754924083E1
1.356931542E1,1.517256567E0,-1.746540628E1,1.785213411E-1,1.753209497E1
1.357925142E1,3.786551022E0,-1.728702177E1,4.772336617E-1,1.770330032E1
1.358918742E1,6.263802871E0,-1.606012857E1,1.211660028E0,1.728094547E1
1.359912342E1,8.450813552E0,-1.473955948E1,1.745230150E0,1.707971579E1
1.360905942E1,1.023462831E1,-1.442726086E1,1.393355237E0,1.774358789E1
1.361899642E1,1.181729300E1,-1.400424872E1,1.111011612E0,1.835760722E1
1.362893242E1,1.367415351E1,-1.292328682E1,2.290892023E0,1.895368046E1
1.363886842E1,1.611612619E1,-1.111590896E1,5.019099643E0,2.021099494E1
1.364880442E1,1.814638237E1,-8.389158171E0,7.875419465E0,2.148700537E1
1.365874042E1,1.895814898E1,-5.500592124E0,9.342834367E0,2.183933334E1
1.366867742E1,1.792111020E1,-3.553062345E0,8.876669776E0,2.031220592E1
1.367861342E1,1.554402057E1,-2.438049191E0,7.470263554E0,1.741739065E1
1.368854942E1,1.289889458E1,-2.110076965E0,6.025435277E0,1.439235132E1
1.369848542E1,1.054999555E1,-2.291924202E0,5.052777851E0,1.191997846E1
1.370842142E1,9.050734954E0,-2.119239844E0,4.080282100E0,1.015163449E1
1.371835842E1,9.309115813E0,-1.818265382E0,2.987324935E0,9.944336905E0
1.372829442E1,1.065196280E1,-6.919825968E-1,2.621973360E0,1.099171942E1
1.373823042E1,1.254577889E1,6.281041047E-1,2.439218634E0,1.279612716E1
1.374816642E1,1.490680037E1,1.502585319E0,2.434078932E0,1.517877466E1
1.375810242E1,1.605259970E1,2.817926128E0,2.807515745E0,1.653810175E1
1.376803842E1,1.611043568E1,4.117943138E0,2.974720677E0,1.689238161E1
1.377797542E1,1.606668213E1,4.109001284E0,3.315350517E0,1.691194002E1
1.378791142E1,1.534817393E1,4.106045516E0,4.589814903E0,1.653760725E1
1.379784742E1,1.434317556E1,4.361640469E0,5.768530841E0,1.606320456E1
1.380778342E1,1.351048059E1,4.228591462E0,6.166846679E0,1.544163429E1
1.381771942E1,1.280824636E1,3.667695254E0,5.871699699E0,1.455953367E1
1.382765542E1,1.252398748E1,3.059140145E0,5.028150548E0,1.383802366E1
1.383759242E1,1.270530496E1,2.561414624E0,4.186883273E0,1.362041154E1
1.384752842E1,1.296549904E1,2.485923562E0,3.555403278E0,1.367204717E1
1.385746442E1,1.306439651E1,2.777173373E0,3.371653942E0,1.377531119E1
1.386740042E1,1.269039924E1,2.837543828E0,3.720245058E0,1.352546159E1
1.387733642E1,1.208570242E1,2.597429380E0,4.103404914E0,1.302492895E1
1.388727342E1,1.152327395E1,1.932119734E0,4.357425503E0,1.247020794E1
1.389720942E1,1.093864360E1,1.026989462E0,4.460096471E0,1.185753312E1
1.390714542E1,1.066753628E1,5.721939057E-2,4.169229359E0,1.145347448E1
1.391708142E1,1.092088911E1,-1.031030765E0,3.584356936E0,1.154021049E1
1.392701742E1,1.087637777E1,-1.650803172E0,3.441594242E0,1.152672180E1
1.393695342E1,1.074845238E1,-1.996102014E0,3.477410777E0,1.147196747E1
1.394689042E1,1.083228275E1,-2.770777397E0,3.394046439E0,1.168482384E1
1.395682642E1,1.049076208E1,-3.491219561E0,3.562088985E0,1.161607425E1
1.396676242E1,1.039291945E1,-4.468686908E0,3.702211368E0,1.190328973E1
1.397669842E1,9.860999415E0,-5.619961862E0,3.641157373E0,1.191978640E1
1.398663442E1,8.793697786E0,-6.542220383E0,3.705058377E0,1.156966836E1
1.399657142E1,8.029500030E0,-7.545204393E0,3.522410949E0,1.156764276E1
1.400650742E1,6.910031297E0,-8.341643112E0,3.340275736E0,1.133529816E1
1.401644342E1,5.816830596E0,-8.956618171E0,3.088610405E0,1.111737566E1
1.402637942E1,4.996516526E0,-9.631634780E0,2.628129016E0,1.116425672E1
1.403631542E1,4.278895351E0,-9.919998990E0,2.107324534E0,1.100709508E1
1.404625142E1,3.477903405E0,-1.019239621E1,1.516823581E0,1.087573015E1
1.405618842E1,2.528158877E0,-1.063861127E1,1.133303245E0,1.099345320E1
1.406612442E1,1.494095746E0,-1.091553774E1,8.867782009E-1,1.105294811E1
1.407606042E1,9.617535388E-1,-1.092628726E1,4.394720507E-1,1.097733387E1
1.408599642E1,4.561412930E-1,-1.092988330E1,-7.192016780E-2,1.093963374E1
1.409593242E1,-2.631440002E-1,-1.093524169E1,-4.272601408E-1,1.094674869E1
1.410586942E1,-1.155786374E0,-1.074409036E1,-8.605335581E-1,1.084028772E1
1.411580542E1,-2.244670075E0,-1.062490423E1,-1.529421115E0,1.096659758E1
1.412574142E1,-3.144973471E0,-1.063190100E1,-2.724217188E0,1.141707215E1
1.413567742E1,-4.118904421E0,-1.065112782E1,-4.038990232E0,1.211302355E1
1.414561342E1,-4.869990381E0,-1.081551059E1,-4.744483698E0,1.277506169E1
1.415554942E1,-5.222676888E0,-1.078186688E1,-4.923891769E0,1.295259501E1
1.416548642E1,-5.432035859E0,-1.024742903E1,-5.104557869E0,1.267175309E1
1.417542242E1,-5.593088059E0,-9.622893192E0,-5.326627518E0,1.233919236E1
1.418535842E1,-5.588586287E0,-9.011718239E0,-5.315756375E0,1.186172956E1
1.419529442E1,-5.662039011E0,-8.381331673E0,-4.880461282E0,1.123050795E1
1.420523042E1,-5.738649230E0,-7.953555808E0,-4.090596296E0,1.062657626E1
1.421516742E1,-5.536043792E0,-7.506244395E0,-3.412515454E0,9.931603472E0
1.422510342E1,-5.078506769E0,-6.756995046E0,-3.101374292E0,9.003706767E0
1.423503942E1,-4.895250353E0,-6.119105918E0,-3.179310660E0,8.456651200E0
1.424497542E1,-4.735738310E0,-5.673345187E0,-3.516228980E0,8.184004471E0
1.425491142E1,-4.782044165E0,-5.351657694E0,-4.037603272E0,8.234708656E0
1.426484742E1,-5.141677748E0,-5.413364530E0,-4.425190932E0,8.678921614E0
1.427478442E1,-5.254398032E0,-5.363331075E0,-4.587436256E0,8.798783456E0
1.428472042E1,-4.899947421E0,-4.741915893E0,-4.559414937E0,8.202652963E0
1.429465642E1,-4.747719839E0,-4.122450172E0,-4.044764065E0,7.476333021E0
1.430459242E1,-4.671325967E0,-3.632818952E0,-3.595157036E0,6.924147163E0
1.431452842E1,-4.226314264E0,-3.277533358E0,-3.446034910E0,6.362319842E0
1.432446542E1,-3.763989248E0,-3.323542174E0,-3.224753466E0,5.967627884E0
1.433440142E1,-3.575412742E0,-3.398381272E0,-2.847082391E0,5.695476248E0
1.434433742E1,-3.497101568E0,-2.852722031E0,-2.831479096E0,5.327759026E0
1.435427342E1,-3.700115141E0,-2.411578261E0,-2.897305881E0,5.282134335E0
1.436420942E1,-4.159099351E0,-2.309940205E0,-2.890456745E0,5.566746927E0
1.437414542E1,-3.913965944E0,-2.295929106E0,-3.070484621E0,5.478895480E0
1.438408242E1,-3.649483224E0,-2.131924648E0,-2.948603504E0,5.153454485E0
1.439401842E1,-3.250864207E0,-2.016852613E0,-2.800603459E0,4.741222658E0
1.440395442E1,-2.546465925E0,-1.790655414E0,-2.750893940E0,4.154317391E0
1.441389042E1,-2.018703403E0,-1.741929397E0,-2.562159852E0,3.697856752E0
1.442382642E1,-6.220813264E-1,-3.119094864E0,-1.938936710E0,3.724944766E0
1.443376417E1,-3.861375502E-1,-1.796631854E0,-3.643283129E-1,1.873425564E0
1.444370017E1,-1.537084330E0,9.318356752E-2,4.354813260E-1,1.600298534E0
1.445363617E1,-2.372725706E0,-2.759710371E-1,6.428025430E-1,2.473698122E0
1.446357217E1,-8.987831193E-1,-6.563300765E-1,7.310118842E-1,1.331524930E0
1.447350817E1,6.545668486E-1,-3.532156795E-1,8.814373541E-1,1.153321674E0
1.448344417E1,5.485246691E-1,-1.900280768E-1,1.192806850E0,1.326566306E0
1.449338117E1,6.738132513E-1,-5.153466904E-1,1.277811917E0,1.533756762E0
1.450331717E1,1.450982910E0,-8.120192099E-1,1.198451752E0,2.049637335E0
1.451325317E1,2.938411514E0,-2.453351355E-1,1.425264663E0,3.275031437E0
1.452318917E1,3.439193668E0,2.360708070E-1,2.013437254E0,3.992206418E0
1.453312517E1,2.654638245E0,4.547660279E-1,2.397951910E0,3.606118372E0
1.454306117E1,2.318758683E0,4.363116306E-1,4.678316313E-1,2.405384814E0
1.455299817E1,1.642756380E0,8.980510479E-1,9.644999760E-1,2.106039984E0
1.456293417E1,1.308127099E0,1.720033329E0,2.308076112E0,3.161791660E0
1.457287017E1,8.049094342E-1,1.635776120E0,2.220070839E0,2.872691637E0
1.458280617E1,6.209842426E-1,1.183945395E0,2.034826369E0,2.434721027E0
1.459274217E1,1.272882130E0,8.239159548E-1,1.815692022E0,2.365545167E0
1.460267917E1,1.396733028E0,4.787132996E-1,1.746611847E0,2.287068543E0
1.461261517E1,1.411613022E0,2.268988645E-1,1.845686485E0,2.334671929E0
1.462255117E1,1.708104132E0,1.287597817E-1,2.526588900E0,3.052515401E0
1.463248717E1,1.971266112E0,3.010789812E-2,3.138155617E0,3.706051436E0
1.464242317E1,1.755310165E0,-3.349934167E-1,3.255421527E0,3.713637527E0
1.465235917E1,-2.000127822E-1,-1.391661299E0,4.128297388E0,4.361142695E0
1.466229617E1,-1.219878143E0,-1.360844718E0,1.626380814E0,2.446449587E0
1.467223217E1,1.363442051E0,3.530350006E-1,-1.168519270E0,1.830039678E0
1.468216817E1,2.284708884E-1,1.007361821E0,3.890211046E-2,1.033677977E0
1.469210417E1,-1.221705836E0,5.988168633E-1,1.388218458E0,1.943784266E0
1.470204017E1,7.073797774E-1,1.248657700E0,8.532602066E-1,1.669606295E0
1.471197717E1,1.511683586E0,1.361282675E0,1.184361132E0,2.353930559E0
1.472191317E1,9.916895288E-1,8.552722335E-1,2.049555506E0,2.432204039E0
1.473184917E1,8.789329916E-1,4.582854670E-1,2.597409791E0,2.780123450E0
1.474178517E1,3.640950090E-1,3.905296862E-2,2.608566864E0,2.634143389E0
1.475172117E1,-2.955729505E-1,-3.841930586E-1,1.616008438E0,1.687142836E0
1.476165717E1,-8.719087315E-1,-4.949814230E-1,4.490486205E-1,1.098579132E0
1.477159417E1,-1.116761179E0,-3.007141149E-1,-5.465895331E-1,1.279196868E0
1.478153017E1,-6.907707614E-1,-3.808876276E-2,-1.239651818E0,1.419630807E0
1.479146617E1,-2.493179664E-3,4.032304233E-1,-1.085472436E0,1.157951380E0
1.480140217E1,6.277310523E-1,8.827471304E-1,-4.065381932E-1,1.156962434E0
1.481133817E1,1.024605845E0,8.797761601E-1,2.015716499E-1,1.365450240E0
1.482127517E1,1.085123357E0,5.428134012E-1,5.347477520E-1,1.325931464E0
1.483121117E1,4.859790498E-1,2.166533732E-1,6.417272401E-1,8.336235191E-1
1.484114717E1,2.365271822E-2,-2.902031600E-2,5.747479695E-1,5.759660218E-1
1.485108317E1,-2.856221589E-1,-2.316935813E-1,7.266662335E-1,8.144358466E-1
1.486101917E1,-6.084596528E-1,-2.529061103E-1,9.505760014E-1,1.156624133E0
1.487095517E1,-6.193053608E-1,-1.117543244E-1,6.060896301E-1,8.737120799E-1
1.488089217E1,-3.597158830E-1,6.299731672E-2,1.014345735E-1,3.790160301E-1
1.489082817E1,-1.569202647E-1,2.104167330E-1,-2.663207924E-1,3.739330628E-1
1.490076417E1,2.587675054E-1,3.226312333E-1,-3.628799576E-1,5.502121393E-1
1.491070017E1,7.843237267E-1,4.318320787E-1,-1.234768224E-1,9.038192176E-1
1.492063617E1,7.701952457E-1,3.828242254E-1,-2.175275320E-1,8.871715343E-1
1.493057217E1,6.415363285E-1,3.203952581E-1,-2.920403552E-1,7.742800212E-1
1.494050917E1,4.668254717E-1,2.656688279E-1,4.027854502E-2,5.386355988E-1
1.495044517E1,2.042536215E-1,1.612492508E-1,4.735601485E-2,2.645060584E-1
1.496038117E1,-1.444839679E-1,7.520630300E-2,-4.978126448E-1,5.237833849E-1
1.497031717E1,-3.633717084E-1,2.221123338E-2,-9.623955631E-1,1.028949735E0
1.498025317E1,-6.112082827E-1,7.016658783E-5,-3.165462699E0,3.223930779E0
1.499019017E1,-4.058673714E-1,2.099103642E-1,-1.556262174E0,1.621956423E0
1.500012617E1,-2.847231495E-1,2.359994709E-1,9.643836164E-1,1.032859517E0
1.501006217E1,-3.698260112E-1,1.912653476E-1,1.054745902E0,1.133950012E0
1.501999817E1,-6.259996918E-1,-1.077565831E-1,9.616933125E-1,1.152536821E0
1.502993417E1,-7.055876058E-1,-3.273803419E-1,4.504689091E-1,8.988626123E-1
1.503987017E1,-2.673063406E-1,-2.489808744E-1,-3.663029176E-1,5.173219336E-1